File: DSC_data/V. Soto/DSC_A1_1_0-100C_6Cmin_2.txt
Filename	DSC_A1_1_0-100C_6Cmin_2
Instrument name	DSC2A-00281 (192.168.1.101)
Operator	JDAA
rundate	5/7/2024
Sample name	DSC_A1_1_0-100C_6C/min_2
proceduresegments	Equilibrate 0,00000 °C; Isothermal 0,5 min; Data On ; Ramp 6,00 °C/min to 100,000 °C; Mark End of Cycle ; Ramp 6,00 °C/min to 0,00000 °C; Mark End of Cycle ; Ramp 6,00 °C/min to 100,000 °C; Mark End of Cycle ; Mark End of Cycle ; Data Off
[step]
Ramp 6,00 °C/min to 100,000 °C
Time	Temperature	Heat Flow (Normalized)
s	°C	W/g
30,0000	-0,132773	-0,168451
30,7000	-0,132490	-0,168482
31,4000	-0,130380	-0,168561
32,1000	-0,127722	-0,168574
32,8000	-0,124594	-0,165978
33,5000	-0,119895	-0,137062
34,2000	-0,109915	-0,0996986
34,9000	-0,0971638	-0,0562078
35,6000	-0,0763100	-0,0131371
36,3000	-0,0538512	0,0342245
37,0000	-0,0234458	0,0742852
37,7000	0,0102322	0,113408
38,4000	0,0483112	0,139780
39,1000	0,0909374	0,160285
39,8000	0,137501	0,172207
40,5000	0,188040	0,177122
41,2000	0,239628	0,176708
41,9000	0,294189	0,170982
42,6000	0,352270	0,158711
43,3000	0,409842	0,149245
44,0000	0,470272	0,133854
44,7000	0,531240	0,119977
45,4000	0,593428	0,106299
46,1000	0,656098	0,0953708
46,8000	0,719879	0,0775020
47,5000	0,785411	0,0699958
48,2000	0,849120	0,0589832
48,9000	0,913556	0,0473270
49,6000	0,979692	0,0396243
50,3000	1,04686	0,0324099
51,0000	1,11217	0,0266878
51,7000	1,17991	0,0213182
52,4000	1,24493	0,0185116
53,1000	1,31251	0,0159217
53,8000	1,38022	8,27645e-3
54,5000	1,44643	5,82994e-3
55,2000	1,51581	5,41397e-3
55,9000	1,58318	3,40901e-3
56,6000	1,65016	-1,65150e-4
57,3000	1,71896	-1,85532e-3
58,0000	1,78619	-2,17647e-3
58,7000	1,85485	-2,92090e-3
59,4000	1,92418	-4,14899e-3
60,1000	1,99148	-4,85294e-3
60,8000	2,06006	-5,60904e-3
61,5000	2,12824	-6,53304e-3
62,2000	2,19677	-7,02396e-3
62,9000	2,26527	-7,56748e-3
63,6000	2,33392	-7,85799e-3
64,3000	2,40349	-8,17882e-3
65,0000	2,47201	-8,54584e-3
65,7000	2,54074	-8,84471e-3
66,4000	2,60914	-9,08462e-3
67,1000	2,67960	-9,63063e-3
67,8000	2,74779	-0,0100737
68,5000	2,81724	-0,0103747
69,2000	2,88700	-0,0105903
69,9000	2,95550	-0,0109335
70,6000	3,02427	-0,0111057
71,3000	3,09447	-0,0114884
72,0000	3,16341	-0,0117520
72,7000	3,23392	-0,0121156
73,4000	3,30159	-0,0123715
74,1000	3,37119	-0,0126550
74,8000	3,43978	-0,0129144
75,5000	3,50974	-0,0131835
76,2000	3,57887	-0,0134667
76,9000	3,64893	-0,0137492
77,6000	3,71939	-0,0140506
78,3000	3,78797	-0,0142324
79,0000	3,85747	-0,0144796
79,7000	3,92678	-0,0147042
80,4000	3,99674	-0,0150467
81,1000	4,06664	-0,0150905
81,8000	4,13559	-0,0152992
82,5000	4,20503	-0,0155022
83,2000	4,27513	-0,0155744
83,9000	4,34524	-0,0157952
84,6000	4,41450	-0,0158710
85,3000	4,48372	-0,0160537
86,0000	4,55424	-0,0162190
86,7000	4,62271	-0,0162522
87,4000	4,69418	-0,0163275
88,1000	4,76299	-0,0164567
88,8000	4,83286	-0,0165118
89,5000	4,90251	-0,0166118
90,2000	4,97101	-0,0167462
90,9000	5,04109	-0,0167163
91,6000	5,11253	-0,0168535
92,3000	5,18152	-0,0169090
93,0000	5,25132	-0,0169980
93,7000	5,32153	-0,0170404
94,4000	5,39012	-0,0170025
95,1000	5,46130	-0,0170872
95,8000	5,53094	-0,0171824
96,5000	5,60130	-0,0171635
97,2000	5,67034	-0,0171158
97,9000	5,74146	-0,0172264
98,6000	5,81163	-0,0173251
99,3000	5,88070	-0,0170164
100,000	5,95227	-0,0172076
100,700	6,02188	-0,0172382
101,400	6,09111	-0,0173550
102,100	6,16144	-0,0174995
102,800	6,23117	-0,0176259
103,500	6,30076	-0,0177343
104,200	6,36987	-0,0177513
104,900	6,44102	-0,0178552
105,600	6,51071	-0,0179368
106,300	6,58063	-0,0179544
107,000	6,65120	-0,0179764
107,700	6,72064	-0,0180181
108,400	6,79143	-0,0180194
109,100	6,86095	-0,0181135
109,800	6,93012	-0,0181320
110,500	7,00144	-0,0181114
111,200	7,07063	-0,0180744
111,900	7,14173	-0,0180613
112,600	7,21160	-0,0181612
113,300	7,28027	-0,0181512
114,000	7,35162	-0,0182213
114,700	7,42085	-0,0182757
115,400	7,49193	-0,0183553
116,100	7,56029	-0,0183606
116,800	7,63328	-0,0183921
117,500	7,70244	-0,0184461
118,200	7,77200	-0,0183382
118,900	7,84209	-0,0183906
119,600	7,91108	-0,0183725
120,300	7,98187	-0,0184823
121,000	8,05129	-0,0184851
121,700	8,12184	-0,0186130
122,400	8,19223	-0,0186255
123,100	8,26133	-0,0186890
123,800	8,33205	-0,0187287
124,500	8,40284	-0,0187526
125,200	8,47307	-0,0187980
125,900	8,54244	-0,0187669
126,600	8,61243	-0,0187636
127,300	8,68330	-0,0189804
128,000	8,75188	-0,0190267
128,700	8,82172	-0,0192253
129,400	8,89291	-0,0191615
130,100	8,96279	-0,0192014
130,800	9,03305	-0,0191640
131,500	9,10255	-0,0192186
132,200	9,17277	-0,0191918
132,900	9,24383	-0,0191997
133,600	9,31259	-0,0191905
134,300	9,38267	-0,0191853
135,000	9,45303	-0,0191781
135,700	9,52355	-0,0192205
136,400	9,59294	-0,0192079
137,100	9,66345	-0,0191321
137,800	9,73250	-0,0190498
138,500	9,80420	-0,0190820
139,200	9,87214	-0,0190574
139,900	9,94279	-0,0191740
140,600	10,0123	-0,0190794
141,300	10,0852	-0,0191635
142,000	10,1535	-0,0191528
142,700	10,2241	-0,0191114
143,400	10,2945	-0,0191788
144,100	10,3644	-0,0191631
144,800	10,4340	-0,0191729
145,500	10,5048	-0,0193114
146,200	10,5740	-0,0193689
146,900	10,6451	-0,0193295
147,600	10,7140	-0,0194445
148,300	10,7849	-0,0194408
149,000	10,8550	-0,0194694
149,700	10,9244	-0,0196004
150,400	10,9944	-0,0196034
151,100	11,0645	-0,0196020
151,800	11,1354	-0,0196057
152,500	11,2050	-0,0194845
153,200	11,2749	-0,0195350
153,900	11,3450	-0,0195400
154,600	11,4158	-0,0195140
155,300	11,4854	-0,0194887
156,000	11,5548	-0,0193828
156,700	11,6254	-0,0193054
157,400	11,6956	-0,0193482
158,100	11,7669	-0,0193523
158,800	11,8357	-0,0193127
159,500	11,9050	-0,0192350
160,200	11,9764	-0,0193024
160,900	12,0465	-0,0193082
161,600	12,1173	-0,0193832
162,300	12,1860	-0,0192793
163,000	12,2575	-0,0192977
163,700	12,3264	-0,0193209
164,400	12,3969	-0,0192687
165,100	12,4672	-0,0192976
165,800	12,5368	-0,0193136
166,500	12,6073	-0,0192743
167,200	12,6778	-0,0194285
167,900	12,7480	-0,0195418
168,600	12,8174	-0,0196276
169,300	12,8869	-0,0195843
170,000	12,9573	-0,0196564
170,700	13,0279	-0,0197026
171,400	13,0970	-0,0197391
172,100	13,1683	-0,0197550
172,800	13,2385	-0,0197742
173,500	13,3075	-0,0198243
174,200	13,3768	-0,0198120
174,900	13,4482	-0,0198276
175,600	13,5190	-0,0197999
176,300	13,5885	-0,0197749
177,000	13,6582	-0,0198130
177,700	13,7296	-0,0198753
178,400	13,7984	-0,0199552
179,100	13,8686	-0,0199907
179,800	13,9398	-0,0201124
180,500	14,0081	-0,0200666
181,200	14,0787	-0,0199700
181,900	14,1497	-0,0199832
182,600	14,2194	-0,0199327
183,300	14,2892	-0,0199288
184,000	14,3596	-0,0199722
184,700	14,4298	-0,0200114
185,400	14,4989	-0,0200455
186,100	14,5701	-0,0200651
186,800	14,6393	-0,0200238
187,500	14,7098	-0,0200412
188,200	14,7807	-0,0201202
188,900	14,8501	-0,0201815
189,600	14,9208	-0,0202553
190,300	14,9906	-0,0201731
191,000	15,0603	-0,0203271
191,700	15,1303	-0,0204414
192,400	15,2007	-0,0205326
193,100	15,2709	-0,0204972
193,800	15,3410	-0,0205024
194,500	15,4115	-0,0205642
195,200	15,4803	-0,0205501
195,900	15,5510	-0,0206295
196,600	15,6223	-0,0207577
197,300	15,6912	-0,0206321
198,000	15,7618	-0,0207773
198,700	15,8317	-0,0207572
199,400	15,9020	-0,0208419
200,100	15,9727	-0,0208471
200,800	16,0434	-0,0208197
201,500	16,1123	-0,0208180
202,200	16,1834	-0,0209035
202,900	16,2525	-0,0209620
203,600	16,3226	-0,0210286
204,300	16,3923	-0,0211921
205,000	16,4634	-0,0211769
205,700	16,5330	-0,0212169
206,400	16,6030	-0,0212736
207,100	16,6724	-0,0213146
207,800	16,7436	-0,0212898
208,500	16,8122	-0,0212996
209,200	16,8842	-0,0214935
209,900	16,9544	-0,0216313
210,600	17,0233	-0,0216184
211,300	17,0935	-0,0216072
212,000	17,1628	-0,0217998
212,700	17,2338	-0,0218684
213,400	17,3037	-0,0218946
214,100	17,3728	-0,0218497
214,800	17,4428	-0,0219458
215,500	17,5139	-0,0219671
216,200	17,5837	-0,0219781
216,900	17,6536	-0,0220121
217,600	17,7234	-0,0220107
218,300	17,7937	-0,0221066
219,000	17,8647	-0,0220039
219,700	17,9331	-0,0219968
220,400	18,0049	-0,0221271
221,100	18,0744	-0,0220669
221,800	18,1440	-0,0221070
222,500	18,2146	-0,0220442
223,200	18,2841	-0,0221550
223,900	18,3546	-0,0222481
224,600	18,4248	-0,0223170
225,300	18,4942	-0,0222741
226,000	18,5652	-0,0223504
226,700	18,6337	-0,0222525
227,400	18,7036	-0,0223163
228,100	18,7744	-0,0222262
228,800	18,8437	-0,0222401
229,500	18,9140	-0,0222143
230,200	18,9837	-0,0223033
230,900	19,0550	-0,0224052
231,600	19,1235	-0,0217352
232,300	19,1942	-0,0220838
233,000	19,2644	-0,0221794
233,700	19,3356	-0,0223381
234,400	19,4045	-0,0223347
235,100	19,4742	-0,0223255
235,800	19,5444	-0,0223495
236,500	19,6159	-0,0224179
237,200	19,6849	-0,0225125
237,900	19,7556	-0,0225667
238,600	19,8249	-0,0226553
239,300	19,8953	-0,0227136
240,000	19,9647	-0,0228553
240,700	20,0351	-0,0228539
241,400	20,1050	-0,0229568
242,100	20,1768	-0,0229748
242,800	20,2453	-0,0232175
243,500	20,3157	-0,0234861
244,200	20,3855	-0,0236817
244,900	20,4555	-0,0238762
245,600	20,5252	-0,0237796
246,300	20,5956	-0,0239115
247,000	20,6656	-0,0239796
247,700	20,7371	-0,0239755
248,400	20,8067	-0,0239575
249,100	20,8755	-0,0239638
249,800	20,9459	-0,0240726
250,500	21,0157	-0,0241197
251,200	21,0853	-0,0242069
251,900	21,1553	-0,0242199
252,600	21,2267	-0,0242114
253,300	21,2966	-0,0241774
254,000	21,3666	-0,0241335
254,700	21,4372	-0,0241661
255,400	21,5077	-0,0242471
256,100	21,5773	-0,0243080
256,800	21,6465	-0,0244215
257,500	21,7173	-0,0244660
258,200	21,7869	-0,0245443
258,900	21,8567	-0,0246047
259,600	21,9265	-0,0246961
260,300	21,9962	-0,0248159
261,000	22,0666	-0,0248243
261,700	22,1376	-0,0248097
262,400	22,2073	-0,0244980
263,100	22,2773	-0,0245682
263,800	22,3472	-0,0246266
264,500	22,4176	-0,0246278
265,200	22,4875	-0,0246556
265,900	22,5572	-0,0246926
266,600	22,6281	-0,0247555
267,300	22,6985	-0,0247592
268,000	22,7681	-0,0248175
268,700	22,8377	-0,0247976
269,400	22,9079	-0,0248700
270,100	22,9786	-0,0249570
270,800	23,0485	-0,0250549
271,500	23,1192	-0,0250658
272,200	23,1885	-0,0251850
272,900	23,2577	-0,0253115
273,600	23,3278	-0,0255001
274,300	23,3978	-0,0254875
275,000	23,4676	-0,0255345
275,700	23,5387	-0,0256018
276,400	23,6086	-0,0255921
277,100	23,6778	-0,0256089
277,800	23,7495	-0,0256562
278,500	23,8175	-0,0256314
279,200	23,8880	-0,0256074
279,900	23,9591	-0,0256724
280,600	24,0284	-0,0257958
281,300	24,0975	-0,0258192
282,000	24,1687	-0,0257968
282,700	24,2386	-0,0258566
283,400	24,3086	-0,0258020
284,100	24,3788	-0,0258683
284,800	24,4490	-0,0259139
285,500	24,5182	-0,0259922
286,200	24,5889	-0,0261434
286,900	24,6586	-0,0260481
287,600	24,7285	-0,0261508
288,300	24,7990	-0,0262312
289,000	24,8695	-0,0262697
289,700	24,9384	-0,0263535
290,400	25,0089	-0,0262695
291,100	25,0799	-0,0264352
291,800	25,1484	-0,0264256
292,500	25,2197	-0,0264932
293,200	25,2903	-0,0265015
293,900	25,3596	-0,0265710
294,600	25,4306	-0,0267771
295,300	25,4997	-0,0269084
296,000	25,5692	-0,0269097
296,700	25,6402	-0,0269843
297,400	25,7091	-0,0270216
298,100	25,7792	-0,0270960
298,800	25,8496	-0,0271063
299,500	25,9199	-0,0270881
300,200	25,9900	-0,0271149
300,900	26,0613	-0,0272560
301,600	26,1305	-0,0273827
302,300	26,2007	-0,0274639
303,000	26,2705	-0,0275848
303,700	26,3405	-0,0276306
304,400	26,4112	-0,0276704
305,100	26,4804	-0,0277867
305,800	26,5520	-0,0278594
306,500	26,6209	-0,0278399
307,200	26,6912	-0,0279058
307,900	26,7620	-0,0279557
308,600	26,8304	-0,0280453
309,300	26,8999	-0,0280875
310,000	26,9702	-0,0280064
310,700	27,0419	-0,0279703
311,400	27,1112	-0,0280579
312,100	27,1816	-0,0280042
312,800	27,2521	-0,0281300
313,500	27,3205	-0,0281852
314,200	27,3914	-0,0283049
314,900	27,4613	-0,0283415
315,600	27,5319	-0,0284215
316,300	27,6016	-0,0285050
317,000	27,6715	-0,0286687
317,700	27,7419	-0,0286660
318,400	27,8120	-0,0287753
319,100	27,8815	-0,0287749
319,800	27,9514	-0,0289862
320,500	28,0217	-0,0290308
321,200	28,0930	-0,0290665
321,900	28,1613	-0,0291707
322,600	28,2323	-0,0291597
323,300	28,3015	-0,0292459
324,000	28,3720	-0,0292882
324,700	28,4421	-0,0294771
325,400	28,5112	-0,0293589
326,100	28,5822	-0,0294666
326,800	28,6522	-0,0294877
327,500	28,7219	-0,0294404
328,200	28,7920	-0,0295909
328,900	28,8617	-0,0295036
329,600	28,9329	-0,0295456
330,300	29,0022	-0,0295276
331,000	29,0720	-0,0296539
331,700	29,1429	-0,0298167
332,400	29,2122	-0,0299246
333,100	29,2828	-0,0299805
333,800	29,3521	-0,0300944
334,500	29,4218	-0,0301557
335,200	29,4918	-0,0301174
335,900	29,5622	-0,0301951
336,600	29,6328	-0,0302401
337,300	29,7032	-0,0303192
338,000	29,7728	-0,0303801
338,700	29,8422	-0,0303840
339,400	29,9129	-0,0304376
340,100	29,9830	-0,0306125
340,800	30,0518	-0,0306759
341,500	30,1224	-0,0307464
342,200	30,1924	-0,0308325
342,900	30,2628	-0,0308687
343,600	30,3325	-0,0308890
344,300	30,4024	-0,0310231
345,000	30,4733	-0,0310828
345,700	30,5442	-0,0313143
346,400	30,6137	-0,0313695
347,100	30,6847	-0,0313641
347,800	30,7538	-0,0314099
348,500	30,8239	-0,0315580
349,200	30,8942	-0,0316619
349,900	30,9624	-0,0318319
350,600	31,0338	-0,0319096
351,300	31,1046	-0,0319999
352,000	31,1742	-0,0320939
352,700	31,2437	-0,0320888
353,400	31,3131	-0,0321515
354,100	31,3829	-0,0323188
354,800	31,4531	-0,0322779
355,500	31,5244	-0,0322694
356,200	31,5930	-0,0322883
356,900	31,6625	-0,0324180
357,600	31,7333	-0,0328002
358,300	31,8037	-0,0327615
359,000	31,8741	-0,0326122
359,700	31,9437	-0,0322555
360,400	32,0143	-0,0325430
361,100	32,0843	-0,0325133
361,800	32,1537	-0,0326339
362,500	32,2241	-0,0327361
363,200	32,2943	-0,0328096
363,900	32,3642	-0,0329037
364,600	32,4333	-0,0330630
365,300	32,5041	-0,0331374
366,000	32,5753	-0,0332408
366,700	32,6446	-0,0333863
367,400	32,7159	-0,0335578
368,100	32,7845	-0,0336284
368,800	32,8551	-0,0336857
369,500	32,9245	-0,0338014
370,200	32,9946	-0,0339578
370,900	33,0649	-0,0339672
371,600	33,1351	-0,0340951
372,300	33,2055	-0,0342149
373,000	33,2752	-0,0343624
373,700	33,3459	-0,0344659
374,400	33,4150	-0,0345064
375,100	33,4859	-0,0346540
375,800	33,5551	-0,0347066
376,500	33,6250	-0,0347009
377,200	33,6958	-0,0347104
377,900	33,7649	-0,0348045
378,600	33,8352	-0,0348042
379,300	33,9056	-0,0348627
380,000	33,9753	-0,0347974
380,700	34,0459	-0,0348598
381,400	34,1164	-0,0349178
382,100	34,1853	-0,0350690
382,800	34,2564	-0,0351244
383,500	34,3263	-0,0352881
384,200	34,3961	-0,0352880
384,900	34,4661	-0,0354667
385,600	34,5357	-0,0355405
386,300	34,6074	-0,0356495
387,000	34,6759	-0,0358370
387,700	34,7461	-0,0360465
388,400	34,8161	-0,0362106
389,100	34,8857	-0,0362024
389,800	34,9556	-0,0363851
390,500	35,0253	-0,0364556
391,200	35,0963	-0,0365428
391,900	35,1666	-0,0365701
392,600	35,2362	-0,0367008
393,300	35,3064	-0,0366852
394,000	35,3759	-0,0367273
394,700	35,4461	-0,0366757
395,400	35,5160	-0,0367898
396,100	35,5861	-0,0369652
396,800	35,6570	-0,0371560
397,500	35,7271	-0,0372109
398,200	35,7959	-0,0373198
398,900	35,8674	-0,0374221
399,600	35,9371	-0,0375020
400,300	36,0066	-0,0375143
401,000	36,0770	-0,0375987
401,700	36,1471	-0,0377782
402,400	36,2162	-0,0378046
403,100	36,2878	-0,0379605
403,800	36,3564	-0,0379576
404,500	36,4271	-0,0379362
405,200	36,4966	-0,0379063
405,900	36,5675	-0,0380815
406,600	36,6361	-0,0384655
407,300	36,7067	-0,0384551
408,000	36,7767	-0,0385864
408,700	36,8471	-0,0386472
409,400	36,9176	-0,0387984
410,100	36,9872	-0,0387704
410,800	37,0586	-0,0389037
411,500	37,1262	-0,0390606
412,200	37,1980	-0,0391958
412,900	37,2680	-0,0392896
413,600	37,3373	-0,0393297
414,300	37,4069	-0,0394241
415,000	37,4772	-0,0396013
415,700	37,5483	-0,0397909
416,400	37,6184	-0,0398032
417,100	37,6884	-0,0398579
417,800	37,7570	-0,0399057
418,500	37,8270	-0,0400260
419,200	37,8974	-0,0401258
419,900	37,9688	-0,0403085
420,600	38,0369	-0,0403212
421,300	38,1077	-0,0404219
422,000	38,1781	-0,0404714
422,700	38,2493	-0,0405796
423,400	38,3182	-0,0406265
424,100	38,3894	-0,0407111
424,800	38,4579	-0,0409112
425,500	38,5292	-0,0411517
426,200	38,5987	-0,0412822
426,900	38,6686	-0,0413759
427,600	38,7386	-0,0415514
428,300	38,8085	-0,0416559
429,000	38,8779	-0,0416427
429,700	38,9489	-0,0417428
430,400	39,0175	-0,0418203
431,100	39,0888	-0,0418823
431,800	39,1576	-0,0420355
432,500	39,2272	-0,0421277
433,200	39,2982	-0,0421048
433,900	39,3684	-0,0422259
434,600	39,4391	-0,0422604
435,300	39,5086	-0,0424186
436,000	39,5781	-0,0424096
436,700	39,6483	-0,0425995
437,400	39,7182	-0,0427431
438,100	39,7885	-0,0427659
438,800	39,8583	-0,0428606
439,500	39,9286	-0,0429960
440,200	39,9981	-0,0430565
440,900	40,0678	-0,0430884
441,600	40,1383	-0,0432232
442,300	40,2082	-0,0433114
443,000	40,2788	-0,0433514
443,700	40,3482	-0,0434095
444,400	40,4192	-0,0435546
445,100	40,4889	-0,0435139
445,800	40,5581	-0,0436063
446,500	40,6296	-0,0439296
447,200	40,6982	-0,0439412
447,900	40,7693	-0,0440576
448,600	40,8381	-0,0442047
449,300	40,9096	-0,0442957
450,000	40,9787	-0,0443451
450,700	41,0488	-0,0445086
451,400	41,1191	-0,0446173
452,100	41,1896	-0,0447350
452,800	41,2587	-0,0447775
453,500	41,3287	-0,0449672
454,200	41,3991	-0,0450429
454,900	41,4687	-0,0452740
455,600	41,5396	-0,0453801
456,300	41,6095	-0,0454924
457,000	41,6797	-0,0455510
457,700	41,7491	-0,0456160
458,400	41,8197	-0,0457662
459,100	41,8887	-0,0458459
459,800	41,9603	-0,0459874
460,500	42,0286	-0,0461246
461,200	42,1002	-0,0462487
461,900	42,1700	-0,0464046
462,600	42,2397	-0,0463881
463,300	42,3090	-0,0464858
464,000	42,3799	-0,0467060
464,700	42,4500	-0,0468002
465,400	42,5191	-0,0469210
466,100	42,5901	-0,0471451
466,800	42,6591	-0,0473692
467,500	42,7291	-0,0473329
468,200	42,7987	-0,0474965
468,900	42,8694	-0,0476108
469,600	42,9391	-0,0477273
470,300	43,0095	-0,0477139
471,000	43,0797	-0,0478516
471,700	43,1504	-0,0479442
472,400	43,2202	-0,0481089
473,100	43,2903	-0,0482023
473,800	43,3607	-0,0483641
474,500	43,4306	-0,0485817
475,200	43,5003	-0,0489671
475,900	43,5688	-0,0492111
476,600	43,6409	-0,0493503
477,300	43,7109	-0,0493870
478,000	43,7812	-0,0493423
478,700	43,8502	-0,0494479
479,400	43,9198	-0,0496088
480,100	43,9903	-0,0496235
480,800	44,0607	-0,0497856
481,500	44,1311	-0,0498338
482,200	44,1998	-0,0498319
482,900	44,2704	-0,0499834
483,600	44,3395	-0,0501292
484,300	44,4100	-0,0501887
485,000	44,4809	-0,0502223
485,700	44,5508	-0,0502790
486,400	44,6206	-0,0504414
487,100	44,6906	-0,0505163
487,800	44,7599	-0,0508100
488,500	44,8313	-0,0509752
489,200	44,9008	-0,0511361
489,900	44,9706	-0,0512640
490,600	45,0412	-0,0513076
491,300	45,1099	-0,0513999
492,000	45,1814	-0,0515020
492,700	45,2503	-0,0516769
493,400	45,3214	-0,0518075
494,100	45,3917	-0,0518667
494,800	45,4604	-0,0519731
495,500	45,5307	-0,0521651
496,200	45,6012	-0,0523425
496,900	45,6703	-0,0524146
497,600	45,7402	-0,0525497
498,300	45,8102	-0,0527402
499,000	45,8810	-0,0527843
499,700	45,9507	-0,0527866
500,400	46,0221	-0,0529358
501,100	46,0907	-0,0530997
501,800	46,1607	-0,0531391
502,500	46,2319	-0,0534706
503,200	46,3012	-0,0537101
503,900	46,3709	-0,0538031
504,600	46,4405	-0,0538491
505,300	46,5103	-0,0542056
506,000	46,5809	-0,0543661
506,700	46,6513	-0,0543830
507,400	46,7231	-0,0544749
508,100	46,7915	-0,0545377
508,800	46,8612	-0,0546361
509,500	46,9318	-0,0547482
510,200	47,0004	-0,0547875
510,900	47,0714	-0,0549503
511,600	47,1418	-0,0550711
512,300	47,2122	-0,0552259
513,000	47,2821	-0,0554481
513,700	47,3517	-0,0554326
514,400	47,4212	-0,0554811
515,100	47,4917	-0,0559051
515,800	47,5616	-0,0559586
516,500	47,6318	-0,0561369
517,200	47,7023	-0,0562719
517,900	47,7719	-0,0562917
518,600	47,8404	-0,0564102
519,300	47,9117	-0,0565395
520,000	47,9814	-0,0566221
520,700	48,0519	-0,0567377
521,400	48,1228	-0,0568934
522,100	48,1919	-0,0569379
522,800	48,2622	-0,0570707
523,500	48,3314	-0,0572038
524,200	48,4014	-0,0572617
524,900	48,4711	-0,0574374
525,600	48,5400	-0,0575684
526,300	48,6107	-0,0578561
527,000	48,6801	-0,0578818
527,700	48,7515	-0,0579261
528,400	48,8231	-0,0579013
529,100	48,8938	-0,0578739
529,800	48,9629	-0,0578894
530,500	49,0328	-0,0582831
531,200	49,1035	-0,0597437
531,900	49,1725	-0,0598680
532,600	49,2427	-0,0601815
533,300	49,3136	-0,0603935
534,000	49,3832	-0,0605549
534,700	49,4526	-0,0607212
535,400	49,5229	-0,0607612
536,100	49,5924	-0,0607498
536,800	49,6630	-0,0608678
537,500	49,7328	-0,0608703
538,200	49,8034	-0,0609145
538,900	49,8722	-0,0608575
539,600	49,9417	-0,0608809
540,300	50,0121	-0,0611112
541,000	50,0820	-0,0610617
541,700	50,1522	-0,0609471
542,400	50,2231	-0,0610187
543,100	50,2932	-0,0611200
543,800	50,3641	-0,0612387
544,500	50,4334	-0,0613434
545,200	50,5033	-0,0614862
545,900	50,5735	-0,0616504
546,600	50,6436	-0,0617330
547,300	50,7132	-0,0617970
548,000	50,7845	-0,0621399
548,700	50,8548	-0,0622634
549,400	50,9236	-0,0623425
550,100	50,9932	-0,0624475
550,800	51,0641	-0,0625981
551,500	51,1338	-0,0627578
552,200	51,2026	-0,0627665
552,900	51,2738	-0,0628447
553,600	51,3438	-0,0628832
554,300	51,4137	-0,0630641
555,000	51,4841	-0,0631779
555,700	51,5531	-0,0632235
556,400	51,6227	-0,0633805
557,100	51,6933	-0,0635044
557,800	51,7630	-0,0635604
558,500	51,8342	-0,0635873
559,200	51,9034	-0,0636620
559,900	51,9742	-0,0637993
560,600	52,0438	-0,0638750
561,300	52,1133	-0,0639689
562,000	52,1834	-0,0641786
562,700	52,2536	-0,0642759
563,400	52,3248	-0,0644546
564,100	52,3946	-0,0645684
564,800	52,4634	-0,0647592
565,500	52,5338	-0,0648975
566,200	52,6038	-0,0650733
566,900	52,6744	-0,0651635
567,600	52,7434	-0,0651759
568,300	52,8146	-0,0652887
569,000	52,8846	-0,0655049
569,700	52,9536	-0,0654758
570,400	53,0241	-0,0655849
571,100	53,0938	-0,0657796
571,800	53,1640	-0,0659720
572,500	53,2347	-0,0661109
573,200	53,3035	-0,0662400
573,900	53,3741	-0,0663974
574,600	53,4446	-0,0665779
575,300	53,5151	-0,0666860
576,000	53,5844	-0,0667132
576,700	53,6550	-0,0668505
577,400	53,7249	-0,0669880
578,100	53,7943	-0,0674680
578,800	53,8659	-0,0675955
579,500	53,9353	-0,0676755
580,200	54,0050	-0,0677458
580,900	54,0741	-0,0679358
581,600	54,1446	-0,0680010
582,300	54,2154	-0,0682318
583,000	54,2851	-0,0683076
583,700	54,3556	-0,0684549
584,400	54,4253	-0,0685753
585,100	54,4954	-0,0686577
585,800	54,5667	-0,0688412
586,500	54,6358	-0,0688363
587,200	54,7056	-0,0686740
587,900	54,7768	-0,0688337
588,600	54,8461	-0,0689054
589,300	54,9155	-0,0691282
590,000	54,9862	-0,0693607
590,700	55,0558	-0,0695207
591,400	55,1262	-0,0696519
592,100	55,1953	-0,0698149
592,800	55,2654	-0,0699289
593,500	55,3352	-0,0700904
594,200	55,4061	-0,0701749
594,900	55,4746	-0,0702433
595,600	55,5458	-0,0703377
596,300	55,6163	-0,0703798
597,000	55,6855	-0,0704573
597,700	55,7551	-0,0705136
598,400	55,8253	-0,0705915
599,100	55,8951	-0,0706652
599,800	55,9656	-0,0708157
600,500	56,0356	-0,0709683
601,200	56,1065	-0,0710205
601,900	56,1759	-0,0710321
602,600	56,2467	-0,0710338
603,300	56,3166	-0,0712535
604,000	56,3864	-0,0713827
604,700	56,4562	-0,0715952
605,400	56,5238	-0,0717049
606,100	56,5952	-0,0717641
606,800	56,6655	-0,0719137
607,500	56,7363	-0,0719817
608,200	56,8064	-0,0721052
608,900	56,8754	-0,0720575
609,600	56,9459	-0,0721121
610,300	57,0161	-0,0720769
611,000	57,0863	-0,0725400
611,700	57,1569	-0,0725479
612,400	57,2270	-0,0726539
613,100	57,2973	-0,0727807
613,800	57,3680	-0,0729190
614,500	57,4364	-0,0729055
615,200	57,5067	-0,0729562
615,900	57,5777	-0,0730906
616,600	57,6478	-0,0731658
617,300	57,7167	-0,0731678
618,000	57,7881	-0,0733725
618,700	57,8575	-0,0733598
619,400	57,9282	-0,0735366
620,100	57,9979	-0,0736266
620,800	58,0686	-0,0736293
621,500	58,1378	-0,0737797
622,200	58,2075	-0,0739695
622,900	58,2776	-0,0740145
623,600	58,3475	-0,0741071
624,300	58,4170	-0,0741551
625,000	58,4866	-0,0742984
625,700	58,5573	-0,0743534
626,400	58,6292	-0,0743808
627,100	58,6964	-0,0744538
627,800	58,7674	-0,0743986
628,500	58,8375	-0,0743730
629,200	58,9070	-0,0745233
629,900	58,9780	-0,0746166
630,600	59,0483	-0,0746712
631,300	59,1176	-0,0746211
632,000	59,1885	-0,0749774
632,700	59,2578	-0,0748694
633,400	59,3280	-0,0750086
634,100	59,3971	-0,0750950
634,800	59,4677	-0,0752248
635,500	59,5384	-0,0753179
636,200	59,6086	-0,0753165
636,900	59,6780	-0,0754020
637,600	59,7482	-0,0754731
638,300	59,8175	-0,0755076
639,000	59,8881	-0,0755116
639,700	59,9583	-0,0757401
640,400	60,0283	-0,0758340
641,100	60,0986	-0,0759113
641,800	60,1683	-0,0759530
642,500	60,2380	-0,0760084
643,200	60,3079	-0,0760054
643,900	60,3777	-0,0761290
644,600	60,4487	-0,0762221
645,300	60,5183	-0,0762201
646,000	60,5895	-0,0762281
646,700	60,6578	-0,0763435
647,400	60,7288	-0,0764425
648,100	60,7983	-0,0764698
648,800	60,8681	-0,0765763
649,500	60,9385	-0,0766565
650,200	61,0091	-0,0767842
650,900	61,0779	-0,0768514
651,600	61,1492	-0,0768333
652,300	61,2177	-0,0767221
653,000	61,2883	-0,0767784
653,700	61,3591	-0,0768861
654,400	61,4280	-0,0769235
655,100	61,4992	-0,0769642
655,800	61,5690	-0,0768790
656,500	61,6386	-0,0769869
657,200	61,7090	-0,0770403
657,900	61,7786	-0,0771021
658,600	61,8486	-0,0772391
659,300	61,9190	-0,0773223
660,000	61,9889	-0,0773756
660,700	62,0589	-0,0774912
661,400	62,1293	-0,0775880
662,100	62,1996	-0,0776161
662,800	62,2699	-0,0776489
663,500	62,3390	-0,0775710
664,200	62,4100	-0,0775209
664,900	62,4793	-0,0776020
665,600	62,5492	-0,0776462
666,300	62,6189	-0,0776765
667,000	62,6897	-0,0777354
667,700	62,7588	-0,0779091
668,400	62,8291	-0,0779084
669,100	62,8988	-0,0779569
669,800	62,9690	-0,0779580
670,500	63,0400	-0,0778932
671,200	63,1086	-0,0778856
671,900	63,1790	-0,0778393
672,600	63,2490	-0,0779378
673,300	63,3203	-0,0778824
674,000	63,3898	-0,0779287
674,700	63,4592	-0,0779438
675,400	63,5297	-0,0783047
676,100	63,5992	-0,0783215
676,800	63,6712	-0,0784211
677,500	63,7401	-0,0784460
678,200	63,8098	-0,0784918
678,900	63,8799	-0,0785421
679,600	63,9509	-0,0786573
680,300	64,0209	-0,0786806
681,000	64,0895	-0,0787575
681,700	64,1605	-0,0787910
682,400	64,2304	-0,0788682
683,100	64,3002	-0,0788461
683,800	64,3707	-0,0789025
684,500	64,4407	-0,0788850
685,200	64,5098	-0,0789636
685,900	64,5808	-0,0789213
686,600	64,6501	-0,0788775
687,300	64,7207	-0,0788888
688,000	64,7907	-0,0789538
688,700	64,8602	-0,0789556
689,400	64,9303	-0,0789969
690,100	64,9997	-0,0790970
690,800	65,0719	-0,0790539
691,500	65,1403	-0,0790633
692,200	65,2104	-0,0791270
692,900	65,2804	-0,0791624
693,600	65,3504	-0,0792336
694,300	65,4210	-0,0791146
695,000	65,4915	-0,0788972
695,700	65,5609	-0,0790719
696,400	65,6312	-0,0790280
697,100	65,7015	-0,0790009
697,800	65,7713	-0,0789958
698,500	65,8408	-0,0790984
699,200	65,9106	-0,0790889
699,900	65,9809	-0,0790546
700,600	66,0509	-0,0790168
701,300	66,1210	-0,0790008
702,000	66,1917	-0,0790241
702,700	66,2614	-0,0789158
703,400	66,3313	-0,0789527
704,100	66,4013	-0,0788454
704,800	66,4711	-0,0789561
705,500	66,5415	-0,0790164
706,200	66,6109	-0,0789899
706,900	66,6817	-0,0789674
707,600	66,7516	-0,0789618
708,300	66,8224	-0,0788731
709,000	66,8929	-0,0789419
709,700	66,9627	-0,0789764
710,400	67,0318	-0,0789631
711,100	67,1018	-0,0789995
711,800	67,1726	-0,0789760
712,500	67,2427	-0,0790915
713,200	67,3130	-0,0790400
713,900	67,3819	-0,0789673
714,600	67,4519	-0,0788680
715,300	67,5224	-0,0788984
716,000	67,5923	-0,0789290
716,700	67,6626	-0,0788911
717,400	67,7319	-0,0788137
718,100	67,8018	-0,0788745
718,800	67,8733	-0,0788146
719,500	67,9428	-0,0788675
720,200	68,0134	-0,0788508
720,900	68,0832	-0,0789482
721,600	68,1524	-0,0788754
722,300	68,2225	-0,0789936
723,000	68,2941	-0,0790816
723,700	68,3633	-0,0791191
724,400	68,4333	-0,0790831
725,100	68,5025	-0,0790553
725,800	68,5733	-0,0788236
726,500	68,6435	-0,0788120
727,200	68,7133	-0,0786692
727,900	68,7832	-0,0786441
728,600	68,8532	-0,0784305
729,300	68,9235	-0,0785382
730,000	68,9929	-0,0785407
730,700	69,0642	-0,0784612
731,400	69,1331	-0,0783963
732,100	69,2043	-0,0785034
732,800	69,2743	-0,0785156
733,500	69,3453	-0,0786038
734,200	69,4150	-0,0785399
734,900	69,4844	-0,0784185
735,600	69,5545	-0,0783546
736,300	69,6247	-0,0785017
737,000	69,6935	-0,0784304
737,700	69,7654	-0,0783782
738,400	69,8348	-0,0783809
739,100	69,9043	-0,0784014
739,800	69,9760	-0,0783048
740,500	70,0448	-0,0781193
741,200	70,1157	-0,0782381
741,900	70,1847	-0,0782851
742,600	70,2559	-0,0782563
743,300	70,3254	-0,0781102
744,000	70,3955	-0,0781119
744,700	70,4661	-0,0781055
745,400	70,5348	-0,0780997
746,100	70,6052	-0,0781107
746,800	70,6751	-0,0782297
747,500	70,7460	-0,0781950
748,200	70,8161	-0,0782222
748,900	70,8855	-0,0780535
749,600	70,9553	-0,0780048
750,300	71,0256	-0,0780496
751,000	71,0959	-0,0781018
751,700	71,1659	-0,0781060
752,400	71,2348	-0,0779796
753,100	71,3070	-0,0778898
753,800	71,3753	-0,0778493
754,500	71,4456	-0,0777949
755,200	71,5162	-0,0776986
755,900	71,5853	-0,0777020
756,600	71,6551	-0,0776338
757,300	71,7251	-0,0774843
758,000	71,7966	-0,0774049
758,700	71,8652	-0,0773668
759,400	71,9366	-0,0773090
760,100	72,0054	-0,0772885
760,800	72,0764	-0,0771617
761,500	72,1458	-0,0770740
762,200	72,2161	-0,0769934
762,900	72,2861	-0,0769759
763,600	72,3554	-0,0770465
764,300	72,4262	-0,0768761
765,000	72,4967	-0,0767277
765,700	72,5668	-0,0766744
766,400	72,6371	-0,0766411
767,100	72,7065	-0,0766298
767,800	72,7775	-0,0765953
768,500	72,8461	-0,0765600
769,200	72,9161	-0,0765459
769,900	72,9870	-0,0764617
770,600	73,0580	-0,0764444
771,300	73,1279	-0,0763454
772,000	73,1970	-0,0763049
772,700	73,2677	-0,0761795
773,400	73,3372	-0,0760650
774,100	73,4078	-0,0760931
774,800	73,4771	-0,0761263
775,500	73,5475	-0,0760067
776,200	73,6174	-0,0759795
776,900	73,6874	-0,0760502
777,600	73,7575	-0,0758884
778,300	73,8276	-0,0758312
779,000	73,8973	-0,0757187
779,700	73,9676	-0,0756386
780,400	74,0375	-0,0755464
781,100	74,1079	-0,0754615
781,800	74,1771	-0,0752888
782,500	74,2476	-0,0752187
783,200	74,3178	-0,0751265
783,900	74,3871	-0,0751943
784,600	74,4581	-0,0750748
785,300	74,5283	-0,0750379
786,000	74,5980	-0,0748441
786,700	74,6678	-0,0747262
787,400	74,7378	-0,0746766
788,100	74,8084	-0,0745178
788,800	74,8782	-0,0744961
789,500	74,9487	-0,0744393
790,200	75,0192	-0,0743497
790,900	75,0882	-0,0742517
791,600	75,1587	-0,0741694
792,300	75,2291	-0,0740559
793,000	75,2983	-0,0740002
793,700	75,3687	-0,0738696
794,400	75,4383	-0,0737474
795,100	75,5085	-0,0736586
795,800	75,5791	-0,0736923
796,500	75,6488	-0,0736051
797,200	75,7194	-0,0735742
797,900	75,7888	-0,0734729
798,600	75,8595	-0,0733331
799,300	75,9290	-0,0732832
800,000	75,9996	-0,0732530
800,700	76,0693	-0,0730862
801,400	76,1394	-0,0730207
802,100	76,2092	-0,0729795
802,800	76,2800	-0,0729479
803,500	76,3499	-0,0727782
804,200	76,4199	-0,0727728
804,900	76,4895	-0,0726938
805,600	76,5601	-0,0726306
806,300	76,6302	-0,0725115
807,000	76,6997	-0,0723239
807,700	76,7703	-0,0723090
808,400	76,8395	-0,0720741
809,100	76,9095	-0,0719378
809,800	76,9803	-0,0719064
810,500	77,0508	-0,0717906
811,200	77,1195	-0,0717768
811,900	77,1901	-0,0717065
812,600	77,2602	-0,0715578
813,300	77,3300	-0,0713691
814,000	77,3998	-0,0712725
814,700	77,4701	-0,0710402
815,400	77,5402	-0,0709464
816,100	77,6116	-0,0709196
816,800	77,6802	-0,0708966
817,500	77,7517	-0,0707155
818,200	77,8210	-0,0707071
818,900	77,8913	-0,0706194
819,600	77,9608	-0,0705535
820,300	78,0308	-0,0704189
821,000	78,1005	-0,0702782
821,700	78,1710	-0,0701594
822,400	78,2412	-0,0700535
823,100	78,3113	-0,0699818
823,800	78,3817	-0,0697215
824,500	78,4517	-0,0695994
825,200	78,5219	-0,0695210
825,900	78,5920	-0,0694655
826,600	78,6621	-0,0693961
827,300	78,7320	-0,0692573
828,000	78,8025	-0,0691583
828,700	78,8722	-0,0690121
829,400	78,9418	-0,0690612
830,100	79,0117	-0,0689426
830,800	79,0812	-0,0687267
831,500	79,1517	-0,0686288
832,200	79,2225	-0,0685689
832,900	79,2916	-0,0683573
833,600	79,3630	-0,0682302
834,300	79,4329	-0,0681233
835,000	79,5027	-0,0679709
835,700	79,5736	-0,0677999
836,400	79,6424	-0,0677182
837,100	79,7125	-0,0675617
837,800	79,7826	-0,0675553
838,500	79,8537	-0,0674608
839,200	79,9234	-0,0673025
839,900	79,9938	-0,0671504
840,600	80,0632	-0,0670747
841,300	80,1335	-0,0669310
842,000	80,2041	-0,0668840
842,700	80,2733	-0,0667460
843,400	80,3438	-0,0668373
844,100	80,4133	-0,0668000
844,800	80,4840	-0,0667712
845,500	80,5536	-0,0666807
846,200	80,6239	-0,0665558
846,900	80,6941	-0,0663540
847,600	80,7638	-0,0662651
848,300	80,8348	-0,0662385
849,000	80,9045	-0,0660974
849,700	80,9746	-0,0659859
850,400	81,0441	-0,0658583
851,100	81,1130	-0,0657682
851,800	81,1831	-0,0656684
852,500	81,2535	-0,0655681
853,200	81,3249	-0,0654551
853,900	81,3950	-0,0652216
854,600	81,4635	-0,0650536
855,300	81,5346	-0,0649378
856,000	81,6038	-0,0647990
856,700	81,6743	-0,0647031
857,400	81,7442	-0,0647191
858,100	81,8134	-0,0644662
858,800	81,8848	-0,0645131
859,500	81,9556	-0,0644520
860,200	82,0241	-0,0642418
860,900	82,0945	-0,0640108
861,600	82,1654	-0,0639349
862,300	82,2355	-0,0638474
863,000	82,3048	-0,0636835
863,700	82,3743	-0,0634793
864,400	82,4449	-0,0633713
865,100	82,5163	-0,0632995
865,800	82,5847	-0,0632004
866,500	82,6549	-0,0631887
867,200	82,7258	-0,0631194
867,900	82,7960	-0,0630621
868,600	82,8664	-0,0629680
869,300	82,9366	-0,0627895
870,000	83,0060	-0,0626127
870,700	83,0751	-0,0624871
871,400	83,1465	-0,0625008
872,100	83,2160	-0,0625204
872,800	83,2869	-0,0623689
873,500	83,3559	-0,0622251
874,200	83,4259	-0,0621583
874,900	83,4966	-0,0622027
875,600	83,5665	-0,0620385
876,300	83,6363	-0,0620037
877,000	83,7055	-0,0618341
877,700	83,7777	-0,0617506
878,400	83,8464	-0,0615545
879,100	83,9162	-0,0611846
879,800	83,9874	-0,0611567
880,500	84,0566	-0,0611823
881,200	84,1269	-0,0610711
881,900	84,1967	-0,0609162
882,600	84,2672	-0,0607601
883,300	84,3372	-0,0605609
884,000	84,4070	-0,0603896
884,700	84,4778	-0,0602946
885,400	84,5475	-0,0602356
886,100	84,6181	-0,0601367
886,800	84,6885	-0,0602284
887,500	84,7579	-0,0601160
888,200	84,8281	-0,0599906
888,900	84,8977	-0,0598587
889,600	84,9669	-0,0597764
890,300	85,0380	-0,0596656
891,000	85,1077	-0,0594720
891,700	85,1775	-0,0593096
892,400	85,2483	-0,0590652
893,100	85,3186	-0,0589031
893,800	85,3881	-0,0588760
894,500	85,4572	-0,0589053
895,200	85,5278	-0,0587474
895,900	85,5977	-0,0585627
896,600	85,6688	-0,0583326
897,300	85,7382	-0,0580767
898,000	85,8089	-0,0579374
898,700	85,8786	-0,0578448
899,400	85,9486	-0,0577037
900,100	86,0194	-0,0575812
900,800	86,0884	-0,0574950
901,500	86,1590	-0,0573455
902,200	86,2289	-0,0572693
902,900	86,2988	-0,0571588
903,600	86,3693	-0,0570851
904,300	86,4386	-0,0570469
905,000	86,5112	-0,0569133
905,700	86,5797	-0,0567205
906,400	86,6506	-0,0566132
907,100	86,7197	-0,0564526
907,800	86,7899	-0,0564483
908,500	86,8598	-0,0562753
909,200	86,9295	-0,0561562
909,900	86,9998	-0,0560596
910,600	87,0706	-0,0559715
911,300	87,1415	-0,0557675
912,000	87,2096	-0,0556380
912,700	87,2800	-0,0554500
913,400	87,3510	-0,0553179
914,100	87,4202	-0,0552536
914,800	87,4906	-0,0551073
915,500	87,5602	-0,0549964
916,200	87,6302	-0,0548913
916,900	87,7005	-0,0547995
917,600	87,7698	-0,0546720
918,300	87,8410	-0,0546244
919,000	87,9109	-0,0544821
919,700	87,9812	-0,0543793
920,400	88,0511	-0,0542141
921,100	88,1219	-0,0539817
921,800	88,1920	-0,0540208
922,500	88,2596	-0,0538090
923,200	88,3302	-0,0536250
923,900	88,4012	-0,0535243
924,600	88,4708	-0,0533966
925,300	88,5412	-0,0532803
926,000	88,6107	-0,0531299
926,700	88,6815	-0,0529739
927,400	88,7516	-0,0529265
928,100	88,8205	-0,0526881
928,800	88,8923	-0,0526556
929,500	88,9616	-0,0525005
930,200	89,0317	-0,0524192
930,900	89,1008	-0,0522768
931,600	89,1710	-0,0522309
932,300	89,2419	-0,0520783
933,000	89,3103	-0,0518617
933,700	89,3817	-0,0517776
934,400	89,4517	-0,0516624
935,100	89,5217	-0,0515369
935,800	89,5914	-0,0513249
936,500	89,6620	-0,0513139
937,200	89,7326	-0,0511560
937,900	89,8031	-0,0509931
938,600	89,8725	-0,0508451
939,300	89,9423	-0,0505952
940,000	90,0125	-0,0504873
940,700	90,0822	-0,0504837
941,400	90,1525	-0,0503305
942,100	90,2218	-0,0502146
942,800	90,2923	-0,0501580
943,500	90,3621	-0,0500493
944,200	90,4323	-0,0498787
944,900	90,5025	-0,0497025
945,600	90,5724	-0,0495676
946,300	90,6429	-0,0493692
947,000	90,7121	-0,0492145
947,700	90,7828	-0,0491012
948,400	90,8529	-0,0490015
949,100	90,9220	-0,0488900
949,800	90,9932	-0,0487188
950,500	91,0630	-0,0485528
951,200	91,1331	-0,0484860
951,900	91,2028	-0,0484414
952,600	91,2720	-0,0482773
953,300	91,3435	-0,0481452
954,000	91,4131	-0,0480424
954,700	91,4827	-0,0479432
955,400	91,5524	-0,0477496
956,100	91,6226	-0,0476734
956,800	91,6929	-0,0475119
957,500	91,7640	-0,0473794
958,200	91,8341	-0,0469808
958,900	91,9032	-0,0463837
959,600	91,9741	-0,0462921
960,300	92,0457	-0,0461925
961,000	92,1132	-0,0461521
961,700	92,1843	-0,0461549
962,400	92,2543	-0,0461100
963,100	92,3240	-0,0460347
963,800	92,3938	-0,0458384
964,500	92,4643	-0,0457377
965,200	92,5352	-0,0456516
965,900	92,6050	-0,0454477
966,600	92,6746	-0,0452809
967,300	92,7446	-0,0451713
968,000	92,8149	-0,0450130
968,700	92,8839	-0,0449435
969,400	92,9549	-0,0448871
970,100	93,0242	-0,0446850
970,800	93,0957	-0,0446722
971,500	93,1646	-0,0444848
972,200	93,2345	-0,0444493
972,900	93,3051	-0,0441840
973,600	93,3755	-0,0440712
974,300	93,4456	-0,0438832
975,000	93,5155	-0,0437558
975,700	93,5844	-0,0436690
976,400	93,6554	-0,0435209
977,100	93,7257	-0,0433882
977,800	93,7945	-0,0433287
978,500	93,8649	-0,0432438
979,200	93,9361	-0,0429977
979,900	94,0062	-0,0427835
980,600	94,0762	-0,0426762
981,300	94,1464	-0,0424538
982,000	94,2168	-0,0423103
982,700	94,2853	-0,0421529
983,400	94,3562	-0,0420752
984,100	94,4265	-0,0419917
984,800	94,4971	-0,0419155
985,500	94,5668	-0,0417591
986,200	94,6368	-0,0415636
986,900	94,7060	-0,0414828
987,600	94,7761	-0,0413384
988,300	94,8465	-0,0411725
989,000	94,9163	-0,0411662
989,700	94,9859	-0,0410474
990,400	95,0579	-0,0409864
991,100	95,1272	-0,0408213
991,800	95,1967	-0,0406713
992,500	95,2674	-0,0405751
993,200	95,3374	-0,0404554
993,900	95,4071	-0,0403107
994,600	95,4769	-0,0402029
995,300	95,5464	-0,0401021
996,000	95,6175	-0,0398655
996,700	95,6878	-0,0397795
997,400	95,7580	-0,0396099
998,100	95,8277	-0,0394113
998,800	95,8985	-0,0391799
999,500	95,9681	-0,0390929
1000,20	96,0378	-0,0389254
1000,90	96,1079	-0,0387810
1001,60	96,1782	-0,0386453
1002,30	96,2484	-0,0386762
1003,00	96,3182	-0,0386005
1003,70	96,3880	-0,0385003
1004,40	96,4583	-0,0383496
1005,10	96,5293	-0,0383353
1005,80	96,5989	-0,0382399
1006,50	96,6680	-0,0381826
1007,20	96,7382	-0,0378147
1007,90	96,8100	-0,0377573
1008,60	96,8787	-0,0375904
1009,30	96,9486	-0,0373950
1010,00	97,0190	-0,0373937
1010,70	97,0898	-0,0372222
1011,40	97,1584	-0,0370570
1012,10	97,2295	-0,0369490
1012,80	97,2985	-0,0367899
1013,50	97,3684	-0,0366938
1014,20	97,4388	-0,0365250
1014,90	97,5096	-0,0363710
1015,60	97,5799	-0,0361755
1016,30	97,6497	-0,0360934
1017,00	97,7196	-0,0360178
1017,70	97,7893	-0,0359375
1018,40	97,8587	-0,0358441
1019,10	97,9294	-0,0356955
1019,80	97,9988	-0,0356041
1020,50	98,0703	-0,0354246
1021,20	98,1401	-0,0352573
1021,90	98,2096	-0,0350644
1022,60	98,2800	-0,0348705
1023,30	98,3492	-0,0348872
1024,00	98,4203	-0,0347699
1024,70	98,4901	-0,0347246
1025,40	98,5592	-0,0345769
1026,10	98,6293	-0,0344168
1026,80	98,7005	-0,0342466
1027,50	98,7702	-0,0339428
1028,20	98,8401	-0,0338172
1028,90	98,9100	-0,0336207
1029,60	98,9809	-0,0335026
1030,20	99,0407	-0,0332894

[step]
Ramp 6,00 °C/min to 0,00000 °C
Time	Temperature	Heat Flow (Normalized)
s	°C	W/g
1030,30	99,0503	-0,0332636
1031,00	99,1205	-0,0331156
1031,70	99,1880	-0,0329573
1032,40	99,2530	-0,0315580
1033,10	99,3142	-0,0307904
1033,80	99,3649	-0,0457583
1034,50	99,4076	-0,124784
1035,20	99,4379	-0,222661
1035,90	99,4553	-0,339812
1036,60	99,4594	-0,458867
1037,30	99,4531	-0,564388
1038,00	99,4368	-0,648071
1038,70	99,4117	-0,702482
1039,40	99,3801	-0,729991
1040,10	99,3422	-0,732387
1040,80	99,2984	-0,718468
1041,50	99,2527	-0,697023
1042,20	99,2051	-0,667000
1042,90	99,1533	-0,633027
1043,60	99,1003	-0,600353
1044,30	99,0442	-0,573301
1045,00	98,9871	-0,544500
1045,70	98,9292	-0,520422
1046,40	98,8699	-0,500177
1047,10	98,8104	-0,480609
1047,80	98,7482	-0,464650
1048,50	98,6852	-0,450048
1049,20	98,6232	-0,438331
1049,90	98,5585	-0,426476
1050,60	98,4943	-0,418052
[...]
2519,00	47,8334	-8,21216e-3
2519,70	47,9030	-8,19713e-3
2520,40	47,9734	-8,13359e-3
2521,10	48,0424	-8,08986e-3
2521,80	48,1136	-8,20640e-3
2522,50	48,1838	-8,22764e-3
2523,20	48,2529	-8,27685e-3
2523,90	48,3232	-8,22592e-3
2524,60	48,3929	-8,13091e-3
2525,30	48,4615	-8,09917e-3
2526,00	48,5316	-8,09935e-3
2526,70	48,6013	-8,02797e-3
2527,40	48,6725	-7,91121e-3
2528,10	48,7425	-7,82366e-3
2528,80	48,8140	-7,66355e-3
2529,50	48,8849	-7,45059e-3
2530,20	48,9539	-7,43759e-3
2530,90	49,0256	-7,41134e-3
2531,60	49,0943	-7,66233e-3
2532,30	49,1648	-7,76062e-3
2533,00	49,2336	-8,14854e-3
2533,70	49,3045	-8,27801e-3
2534,40	49,3738	-8,27331e-3
2535,10	49,4437	-8,22874e-3
2535,80	49,5138	-8,21534e-3
2536,50	49,5831	-8,17823e-3
2537,20	49,6549	-8,00875e-3
2537,90	49,7229	-7,90695e-3
2538,60	49,7929	-7,71146e-3
2539,30	49,8627	-7,61737e-3
2540,00	49,9333	-7,59262e-3
2540,70	50,0033	-7,63452e-3
2541,40	50,0732	-7,35885e-3
2542,10	50,1426	-7,29799e-3
2542,80	50,2135	-7,19084e-3
2543,50	50,2842	-7,14447e-3
2544,20	50,3546	-6,97933e-3
2544,90	50,4248	-6,91208e-3
2545,60	50,4949	-6,86671e-3
2546,30	50,5655	-6,99845e-3
2547,00	50,6349	-7,04014e-3
2547,70	50,7058	-7,14791e-3
2548,40	50,7743	-7,15852e-3
2549,10	50,8449	-7,28033e-3
2549,80	50,9146	-7,28907e-3
2550,50	50,9840	-7,13027e-3
2551,20	51,0550	-7,15309e-3
2551,90	51,1245	-7,16401e-3
2552,60	51,1946	-7,05728e-3
2553,30	51,2651	-7,01277e-3
2554,00	51,3358	-6,95943e-3
2554,70	51,4055	-6,85572e-3
2555,40	51,4744	-6,91056e-3
2556,10	51,5440	-6,89374e-3
2556,80	51,6158	-6,74354e-3
2557,50	51,6852	-6,84321e-3
2558,20	51,7555	-6,97454e-3
2558,90	51,8250	-6,94246e-3
2559,60	51,8955	-7,01997e-3
2560,30	51,9663	-6,99896e-3
2561,00	52,0355	-6,95322e-3
2561,70	52,1059	-6,81792e-3
2562,40	52,1745	-6,77797e-3
2563,10	52,2455	-6,73916e-3
2563,80	52,3155	-6,66484e-3
2564,50	52,3851	-6,72539e-3
2565,20	52,4561	-6,61368e-3
2565,90	52,5258	-6,64946e-3
2566,60	52,5956	-6,60889e-3
2567,30	52,6652	-6,52626e-3
2568,00	52,7350	-6,47878e-3
2568,70	52,8066	-6,48676e-3
2569,40	52,8760	-6,39831e-3
2570,10	52,9467	-6,43193e-3
2570,80	53,0169	-6,17851e-3
2571,50	53,0870	-5,91269e-3
2572,20	53,1574	-6,23486e-3
2572,90	53,2267	-6,17152e-3
2573,60	53,2976	-6,19032e-3
2574,30	53,3672	-6,17585e-3
2575,00	53,4371	-6,17561e-3
2575,70	53,5069	-6,20870e-3
2576,40	53,5762	-6,20152e-3
2577,10	53,6465	-6,13768e-3
2577,80	53,7157	-6,10470e-3
2578,50	53,7867	-5,97549e-3
2579,20	53,8572	-5,97156e-3
2579,90	53,9260	-5,80073e-3
2580,60	53,9964	-5,73272e-3
2581,30	54,0670	-5,83414e-3
2582,00	54,1370	-5,74155e-3
2582,70	54,2080	-5,74002e-3
2583,40	54,2774	-5,82867e-3
2584,10	54,3473	-6,04288e-3
2584,80	54,4173	-6,04447e-3
2585,50	54,4869	-6,13223e-3
2586,20	54,5574	-6,11486e-3
2586,90	54,6283	-6,01990e-3
2587,60	54,6973	-5,85081e-3
2588,30	54,7676	-5,84749e-3
2589,00	54,8377	-5,73969e-3
2589,70	54,9078	-5,76050e-3
2590,40	54,9780	-5,68341e-3
2591,10	55,0481	-5,56237e-3
2591,80	55,1186	-5,60242e-3
2592,50	55,1886	-5,56974e-3
2593,20	55,2575	-5,59989e-3
2593,90	55,3283	-5,61294e-3
2594,60	55,3983	-5,62671e-3
2595,30	55,4689	-5,68535e-3
2596,00	55,5389	-5,65683e-3
2596,70	55,6098	-5,64616e-3
2597,40	55,6797	-5,70131e-3
2598,10	55,7488	-5,63850e-3
2598,80	55,8191	-5,64724e-3
2599,50	55,8882	-5,75378e-3
2600,20	55,9580	-5,75229e-3
2600,90	56,0277	-5,69467e-3
2601,60	56,0988	-5,65803e-3
2602,30	56,1678	-5,52111e-3
2603,00	56,2387	-5,49889e-3
2603,70	56,3082	-5,18872e-3
2604,40	56,3796	-5,17773e-3
2605,10	56,4498	-5,07793e-3
2605,80	56,5195	-5,17239e-3
2606,50	56,5887	-5,06542e-3
2607,20	56,6586	-5,05218e-3
2607,90	56,7293	-5,22336e-3
2608,60	56,7983	-5,16998e-3
2609,30	56,8692	-5,11980e-3
2610,00	56,9392	-5,11221e-3
2610,70	57,0091	-4,82298e-3
2611,40	57,0800	-4,76868e-3
2612,10	57,1505	-4,90148e-3
2612,80	57,2193	-4,84589e-3
2613,50	57,2901	-4,84494e-3
2614,20	57,3590	-4,93993e-3
2614,90	57,4305	-5,03550e-3
2615,60	57,5000	-5,00773e-3
2616,30	57,5700	-4,88560e-3
2617,00	57,6402	-4,92040e-3
2617,70	57,7101	-4,91869e-3
2618,40	57,7806	-4,87751e-3
2619,10	57,8500	-4,78717e-3
2619,80	57,9205	-4,80941e-3
2620,50	57,9897	-4,69373e-3
2621,20	58,0599	-4,60903e-3
2621,90	58,1295	-4,67501e-3
2622,60	58,2007	-4,70037e-3
2623,30	58,2702	-4,61509e-3
2624,00	58,3410	-4,59602e-3
2624,70	58,4105	-4,62308e-3
2625,40	58,4804	-4,56884e-3
2626,10	58,5519	-4,59591e-3
2626,80	58,6207	-4,54233e-3
2627,50	58,6913	-4,65088e-3
2628,20	58,7610	-4,61734e-3
2628,90	58,8308	-4,61118e-3
2629,60	58,9007	-4,52682e-3
2630,30	58,9711	-4,43178e-3
2631,00	59,0411	-4,45506e-3
2631,70	59,1107	-4,34773e-3
2632,40	59,1812	-4,28647e-3
2633,10	59,2506	-4,30078e-3
2633,80	59,3214	-4,27944e-3
2634,50	59,3920	-4,16284e-3
2635,20	59,4618	-4,22268e-3
2635,90	59,5311	-4,22779e-3
2636,60	59,6019	-4,15166e-3
2637,30	59,6725	-4,03683e-3
2638,00	59,7414	-3,97512e-3
2638,70	59,8117	-3,97493e-3
2639,40	59,8812	-3,89712e-3
2640,10	59,9512	-3,84049e-3
2640,80	60,0209	-3,84365e-3
2641,50	60,0921	-3,93890e-3
2642,20	60,1620	-3,83168e-3
2642,90	60,2318	-3,72910e-3
2643,60	60,3014	-3,61502e-3
2644,30	60,3718	-3,61760e-3
2645,00	60,4432	-3,63830e-3
2645,70	60,5130	-3,67415e-3
2646,40	60,5840	-3,68396e-3
2647,10	60,6513	-3,77155e-3
2647,80	60,7234	-3,83248e-3
2648,50	60,7921	-3,78709e-3
2649,20	60,8630	-3,74273e-3
2649,90	60,9332	-3,69933e-3
2650,60	61,0026	-3,75080e-3
2651,30	61,0719	-3,78563e-3
2652,00	61,1428	-3,78899e-3
2652,70	61,2134	-3,75711e-3
2653,40	61,2819	-3,67749e-3
2654,10	61,3528	-3,50467e-3
2654,80	61,4223	-3,47125e-3
2655,50	61,4936	-3,36085e-3
2656,20	61,5636	-3,35053e-3
2656,90	61,6335	-3,29490e-3
2657,60	61,7044	-3,08780e-3
2658,30	61,7737	-3,02328e-3
2659,00	61,8436	-3,03243e-3
2659,70	61,9131	-3,05359e-3
2660,40	61,9840	-3,16932e-3
2661,10	62,0548	-3,26718e-3
2661,80	62,1235	-3,23359e-3
2662,50	62,1941	-3,16867e-3
2663,20	62,2644	-3,27277e-3
2663,90	62,3340	-3,51982e-3
2664,60	62,4037	-3,38537e-3
2665,30	62,4737	-3,35234e-3
2666,00	62,5441	-3,38427e-3
2666,70	62,6135	-3,31761e-3
2667,40	62,6840	-3,18290e-3
2668,10	62,7528	-3,07987e-3
2668,80	62,8236	-3,14438e-3
2669,50	62,8939	-3,14366e-3
2670,20	62,9645	-3,03561e-3
2670,90	63,0344	-2,95422e-3
2671,60	63,1036	-2,85641e-3
2672,30	63,1736	-2,81138e-3
2673,00	63,2438	-2,73747e-3
2673,70	63,3145	-2,94685e-3
2674,40	63,3843	-2,82388e-3
2675,10	63,4542	-2,92492e-3
2675,80	63,5239	-2,89689e-3
2676,50	63,5951	-2,80533e-3
2677,20	63,6640	-2,87368e-3
2677,90	63,7351	-2,85006e-3
2678,60	63,8048	-2,74803e-3
2679,30	63,8751	-2,82277e-3
2680,00	63,9447	-2,73860e-3
2680,70	64,0140	-2,62180e-3
2681,40	64,0853	-2,59688e-3
2682,10	64,1544	-2,62129e-3
2682,80	64,2244	-2,56627e-3
2683,50	64,2942	-2,52406e-3
2684,20	64,3641	-2,53436e-3
2684,90	64,4355	-2,52464e-3
2685,60	64,5055	-2,49147e-3
2686,30	64,5762	-2,44561e-3
2687,00	64,6450	-2,46491e-3
2687,70	64,7152	-2,48806e-3
2688,40	64,7846	-2,49505e-3
2689,10	64,8560	-2,38617e-3
2689,80	64,9258	-2,34742e-3
2690,50	64,9956	-2,40553e-3
2691,20	65,0653	-2,31412e-3
2691,90	65,1355	-2,32834e-3
2692,60	65,2062	-2,35206e-3
2693,30	65,2761	-2,37550e-3
2694,00	65,3464	-2,37961e-3
2694,70	65,4158	-2,24630e-3
2695,40	65,4860	-2,15363e-3
2696,10	65,5563	-2,22037e-3
2696,80	65,6273	-2,11358e-3
2697,50	65,6976	-1,94858e-3
2698,20	65,7654	-2,01246e-3
2698,90	65,8372	-2,06157e-3
2699,60	65,9063	-2,01405e-3
2700,30	65,9770	-2,03861e-3
2701,00	66,0463	-1,96190e-3
2701,70	66,1171	-1,85082e-3
2702,40	66,1867	-1,86617e-3
2703,10	66,2562	-1,87993e-3
2703,80	66,3275	-1,78584e-3
2704,50	66,3967	-1,73130e-3
2705,20	66,4673	-1,73023e-3
2705,90	66,5376	-1,66791e-3
2706,60	66,6064	-1,58593e-3
2707,30	66,6765	-1,54501e-3
2708,00	66,7480	-1,52479e-3
2708,70	66,8167	-1,46396e-3
2709,40	66,8877	-1,39770e-3
2710,10	66,9568	-1,34569e-3
2710,80	67,0273	-1,28701e-3
2711,50	67,0973	-1,24100e-3
2712,20	67,1679	-1,16759e-3
2712,90	67,2383	-1,18866e-3
2713,60	67,3077	-1,21587e-3
2714,30	67,3783	-1,19326e-3
2715,00	67,4482	-1,30296e-3
2715,70	67,5181	-1,17628e-3
2716,40	67,5886	-1,02679e-3
2717,10	67,6586	-1,15844e-3
2717,80	67,7284	-1,03344e-3
2718,50	67,7985	-1,06218e-3
2719,20	67,8687	-9,81615e-4
2719,90	67,9381	-9,62387e-4
2720,60	68,0090	-1,08724e-3
2721,30	68,0785	-9,41313e-4
2722,00	68,1475	-9,39047e-4
2722,70	68,2185	-9,11148e-4
2723,40	68,2885	-9,24946e-4
2724,10	68,3585	-9,06968e-4
2724,80	68,4287	-8,21258e-4
2725,50	68,4982	-8,64104e-4
2726,20	68,5685	-7,87589e-4
2726,90	68,6385	-7,07145e-4
2727,60	68,7094	-6,71972e-4
2728,30	68,7785	-7,05875e-4
2729,00	68,8489	-7,38782e-4
2729,70	68,9186	-7,18753e-4
2730,40	68,9897	-7,02670e-4
2731,10	69,0585	-7,56665e-4
2731,80	69,1288	-6,24309e-4
2732,50	69,1996	-5,51924e-4
2733,20	69,2680	-4,96553e-4
2733,90	69,3398	-3,71176e-4
2734,60	69,4100	-2,14498e-4
2735,30	69,4792	-2,07791e-4
2736,00	69,5495	-2,70328e-4
2736,70	69,6202	-3,59754e-4
2737,40	69,6888	-3,83145e-4
2738,10	69,7594	-3,94968e-4
2738,80	69,8292	-3,86169e-4
2739,50	69,8991	-3,94936e-4
2740,20	69,9700	-4,21831e-4
2740,90	70,0406	-3,64705e-4
2741,60	70,1108	-3,14662e-4
2742,30	70,1801	-2,28559e-4
2743,00	70,2500	-2,34760e-4
2743,70	70,3206	-2,54084e-4
2744,40	70,3919	-2,91332e-4
2745,10	70,4606	-2,48619e-4
2745,80	70,5300	-3,31809e-4
2746,50	70,5999	-3,44536e-4
2747,20	70,6700	-3,78646e-4
2747,90	70,7396	-4,02543e-4
2748,60	70,8109	-2,86241e-4
2749,30	70,8803	-2,11939e-4
2750,00	70,9498	-2,41495e-4
2750,70	71,0203	-1,69118e-4
2751,40	71,0908	-6,53951e-5
2752,10	71,1605	2,85426e-5
2752,80	71,2305	4,49906e-5
2753,50	71,3009	8,85327e-5
2754,20	71,3711	8,82573e-5
2754,90	71,4407	5,91210e-5
2755,60	71,5110	2,15389e-5
2756,30	71,5806	1,39209e-4
2757,00	71,6514	1,53271e-4
2757,70	71,7210	3,30293e-4
2758,40	71,7908	4,36327e-4
2759,10	71,8604	3,94551e-4
2759,80	71,9316	4,13004e-4
2760,50	72,0009	5,48940e-4
2761,20	72,0720	5,98988e-4
2761,90	72,1416	6,02800e-4
2762,60	72,2110	5,80076e-4
2763,30	72,2819	6,12107e-4
2764,00	72,3512	6,37342e-4
2764,70	72,4212	6,15832e-4
2765,40	72,4913	6,60903e-4
2766,10	72,5615	5,88954e-4
2766,80	72,6333	5,99587e-4
2767,50	72,7022	7,34373e-4
2768,20	72,7724	7,67070e-4
2768,90	72,8427	8,05881e-4
2769,60	72,9131	8,15102e-4
2770,30	72,9814	8,42176e-4
2771,00	73,0520	6,43295e-4
2771,70	73,1224	8,79175e-4
2772,40	73,1922	1,03173e-3
2773,10	73,2614	1,00327e-3
2773,80	73,3319	1,11024e-3
2774,50	73,4021	1,16690e-3
2775,20	73,4718	1,14708e-3
2775,90	73,5421	1,01383e-3
2776,60	73,6124	1,07515e-3
2777,30	73,6818	1,10621e-3
2778,00	73,7529	1,01938e-3
2778,70	73,8225	1,09910e-3
2779,40	73,8928	1,22475e-3
2780,10	73,9618	1,12902e-3
2780,80	74,0323	1,23346e-3
2781,50	74,1017	1,32094e-3
2782,20	74,1724	1,34949e-3
2782,90	74,2423	1,36408e-3
2783,60	74,3120	1,41932e-3
2784,30	74,3837	1,75377e-3
2785,00	74,4537	1,89441e-3
2785,70	74,5235	1,97694e-3
2786,40	74,5929	2,07063e-3
2787,10	74,6638	2,07263e-3
2787,80	74,7336	1,98998e-3
2788,50	74,8038	1,99231e-3
2789,20	74,8742	2,15593e-3
2789,90	74,9440	2,14802e-3
2790,60	75,0139	2,07585e-3
2791,30	75,0840	1,97774e-3
2792,00	75,1537	2,04338e-3
2792,70	75,2243	1,95269e-3
2793,40	75,2943	1,98476e-3
2794,10	75,3632	1,98542e-3
2794,80	75,4338	2,03092e-3
2795,50	75,5036	2,09859e-3
2796,20	75,5742	2,22927e-3
2796,90	75,6428	2,25541e-3
2797,60	75,7154	2,31841e-3
2798,30	75,7844	2,36199e-3
2799,00	75,8538	2,32846e-3
2799,70	75,9257	2,37971e-3
2800,40	75,9934	2,37517e-3
2801,10	76,0644	2,35183e-3
2801,80	76,1334	2,37193e-3
2802,50	76,2048	2,35947e-3
2803,20	76,2743	2,52135e-3
2803,90	76,3439	2,47865e-3
2804,60	76,4148	2,55096e-3
2805,30	76,4843	2,61165e-3
2806,00	76,5539	2,65928e-3
2806,70	76,6242	2,79894e-3
2807,40	76,6952	2,72862e-3
2808,10	76,7643	2,83835e-3
2808,80	76,8343	2,81060e-3
2809,50	76,9043	2,81533e-3
2810,20	76,9742	2,79549e-3
2810,90	77,0437	2,86052e-3
2811,60	77,1143	2,82138e-3
2812,30	77,1846	2,88718e-3
2813,00	77,2543	2,78266e-3
2813,70	77,3240	2,92322e-3
2814,40	77,3951	3,02518e-3
2815,10	77,4644	3,06529e-3
2815,80	77,5352	3,20393e-3
2816,50	77,6041	3,20194e-3
2817,20	77,6751	3,26752e-3
2817,90	77,7451	3,38282e-3
2818,60	77,8147	3,42439e-3
2819,30	77,8856	3,49328e-3
2820,00	77,9554	3,66322e-3
2820,70	78,0245	3,58960e-3
2821,40	78,0956	3,57025e-3
2822,10	78,1645	3,63847e-3
2822,80	78,2362	3,52843e-3
2823,50	78,3066	3,64272e-3
2824,20	78,3752	3,59877e-3
2824,90	78,4447	3,73234e-3
2825,60	78,5159	3,72462e-3
2826,30	78,5858	3,73751e-3
2827,00	78,6550	3,81636e-3
2827,70	78,7253	3,90196e-3
2828,40	78,7955	3,93619e-3
2829,10	78,8651	3,91644e-3
2829,80	78,9356	3,90953e-3
2830,50	79,0057	4,11882e-3
2831,20	79,0761	4,12249e-3
2831,90	79,1459	4,15546e-3
2832,60	79,2161	4,14959e-3
2833,30	79,2854	4,18462e-3
2834,00	79,3565	4,19066e-3
2834,70	79,4261	4,24449e-3
2835,40	79,4963	4,18788e-3
2836,10	79,5658	4,30198e-3
2836,80	79,6355	4,28772e-3
2837,50	79,7061	4,30615e-3
2838,20	79,7753	4,39956e-3
2838,90	79,8462	4,40886e-3
2839,60	79,9171	4,49963e-3
2840,30	79,9866	4,67324e-3
2841,00	80,0575	4,61109e-3
2841,70	80,1271	4,59739e-3
2842,40	80,1973	4,55155e-3
2843,10	80,2670	4,60911e-3
2843,80	80,3367	4,56305e-3
2844,50	80,4072	4,53940e-3
2845,20	80,4772	4,51920e-3
2845,90	80,5473	4,58743e-3
2846,60	80,6166	4,56667e-3
2847,30	80,6873	4,56306e-3
2848,00	80,7569	4,71950e-3
2848,70	80,8261	4,71040e-3
2849,40	80,8981	4,83294e-3
2850,10	80,9669	4,85380e-3
2850,80	81,0376	4,87694e-3
2851,50	81,1068	4,70988e-3
2852,20	81,1769	4,76635e-3
2852,90	81,2476	4,84642e-3
2853,60	81,3173	4,93591e-3
2854,30	81,3868	4,94761e-3
2855,00	81,4575	5,04626e-3
2855,70	81,5272	5,06622e-3
2856,40	81,5973	5,16369e-3
2857,10	81,6675	5,24883e-3
2857,80	81,7373	5,26843e-3
2858,50	81,8073	5,14547e-3
2859,20	81,8774	5,11330e-3
2859,90	81,9473	5,12547e-3
2860,60	82,0178	5,18733e-3
2861,30	82,0872	5,26398e-3
2862,00	82,1569	5,30908e-3
2862,70	82,2273	5,29245e-3
2863,40	82,2992	5,40933e-3
2864,10	82,3680	5,49677e-3
2864,80	82,4389	5,51730e-3
2865,50	82,5082	5,59687e-3
2866,20	82,5786	5,59229e-3
2866,90	82,6476	5,45647e-3
2867,60	82,7195	5,38469e-3
2868,30	82,7884	5,34276e-3
2869,00	82,8593	5,34318e-3
2869,70	82,9286	5,35155e-3
2870,40	82,9992	5,46016e-3
2871,10	83,0682	5,51721e-3
2871,80	83,1393	5,57833e-3
2872,50	83,2083	5,62691e-3
2873,20	83,2782	5,63008e-3
2873,90	83,3483	5,70229e-3
2874,60	83,4186	5,72620e-3
2875,30	83,4885	5,84060e-3
2876,00	83,5591	5,90626e-3
2876,70	83,6295	5,99429e-3
2877,40	83,6996	6,02963e-3
2878,10	83,7691	6,15766e-3
2878,80	83,8399	6,20423e-3
2879,50	83,9094	6,08392e-3
2880,20	83,9789	6,12313e-3
2880,90	84,0498	6,12985e-3
2881,60	84,1191	6,03401e-3
2882,30	84,1890	6,04384e-3
2883,00	84,2587	6,07661e-3
2883,70	84,3300	6,06639e-3
2884,40	84,3998	6,07749e-3
2885,10	84,4700	5,95230e-3
2885,80	84,5393	6,02511e-3
2886,50	84,6094	6,22606e-3
2887,20	84,6808	6,19409e-3
2887,90	84,7497	6,27326e-3
2888,60	84,8207	6,28395e-3
2889,30	84,8895	6,25067e-3
2890,00	84,9604	6,20728e-3
2890,70	85,0290	6,15933e-3
2891,40	85,0994	6,17990e-3
2892,10	85,1701	6,27204e-3
2892,80	85,2397	6,51125e-3
2893,50	85,3099	6,54923e-3
2894,20	85,3796	6,61803e-3
2894,90	85,4501	6,55167e-3
2895,60	85,5194	6,49949e-3
2896,30	85,5900	6,59557e-3
2897,00	85,6598	6,53180e-3
2897,70	85,7288	6,53561e-3
2898,40	85,7990	6,51608e-3
2899,10	85,8706	6,56963e-3
2899,80	85,9407	6,63909e-3
2900,50	86,0105	6,70538e-3
2901,20	86,0813	6,67087e-3
2901,90	86,1508	6,65444e-3
2902,60	86,2207	6,70886e-3
2903,30	86,2905	6,72989e-3
2904,00	86,3609	6,76754e-3
2904,70	86,4311	6,83928e-3
2905,40	86,5010	6,85102e-3
2906,10	86,5708	6,90462e-3
2906,80	86,6402	6,95276e-3
2907,50	86,7103	6,96794e-3
2908,20	86,7826	6,96994e-3
2908,90	86,8516	6,88022e-3
2909,60	86,9217	6,89655e-3
2910,30	86,9916	6,82987e-3
2911,00	87,0617	6,85462e-3
2911,70	87,1318	6,83341e-3
2912,40	87,2013	6,89464e-3
2913,10	87,2718	6,97792e-3
2913,80	87,3426	6,90342e-3
2914,50	87,4120	6,96984e-3
2915,20	87,4826	6,94525e-3
2915,90	87,5529	6,85777e-3
2916,60	87,6220	6,88402e-3
2917,30	87,6929	6,92832e-3
2918,00	87,7628	6,95969e-3
2918,70	87,8328	7,12355e-3
2919,40	87,9019	7,07349e-3
2920,10	87,9707	7,11094e-3
2920,80	88,0416	7,09666e-3
2921,50	88,1124	7,20290e-3
2922,20	88,1829	7,13451e-3
2922,90	88,2527	7,24444e-3
2923,60	88,3226	7,32212e-3
2924,30	88,3923	7,41045e-3
2925,00	88,4615	7,37590e-3
2925,70	88,5326	7,49900e-3
2926,40	88,6017	7,58360e-3
2927,10	88,6725	7,56506e-3
2927,80	88,7424	7,61148e-3
2928,50	88,8122	7,73818e-3
2929,20	88,8827	7,79849e-3
2929,90	88,9528	7,79303e-3
2930,60	89,0227	7,83365e-3
2931,30	89,0925	7,73628e-3
2932,00	89,1625	7,65628e-3
2932,70	89,2328	7,81056e-3
2933,40	89,3018	7,82573e-3
2934,10	89,3726	7,89453e-3
2934,80	89,4422	7,79226e-3
2935,50	89,5123	7,84318e-3
2936,20	89,5828	7,94447e-3
2936,90	89,6525	8,08789e-3
2937,60	89,7232	8,04671e-3
2938,30	89,7928	7,96260e-3
2939,00	89,8623	8,17056e-3
2939,70	89,9332	8,22938e-3
2940,40	90,0022	8,30878e-3
2941,10	90,0735	8,27499e-3
2941,80	90,1428	8,23131e-3
2942,50	90,2133	8,40836e-3
2943,20	90,2830	8,43872e-3
2943,90	90,3541	8,50937e-3
2944,60	90,4241	8,54095e-3
2945,30	90,4927	8,51483e-3
2946,00	90,5636	8,49540e-3
2946,70	90,6339	8,46879e-3
2947,40	90,7039	8,36741e-3
2948,10	90,7734	8,33643e-3
2948,80	90,8435	8,32690e-3
2949,50	90,9145	8,42200e-3
2950,20	90,9839	8,40311e-3
2950,90	91,0537	8,39864e-3
2951,60	91,1237	8,37523e-3
2952,30	91,1942	8,38434e-3
2953,00	91,2649	8,31401e-3
2953,70	91,3342	8,41501e-3
2954,40	91,4045	8,42886e-3
2955,10	91,4741	8,42543e-3
2955,80	91,5443	8,46450e-3
2956,50	91,6139	8,54927e-3
2957,20	91,6842	8,68021e-3
2957,90	91,7541	8,69281e-3
2958,60	91,8249	8,68420e-3
2959,30	91,8943	8,77211e-3
2960,00	91,9638	8,83770e-3
2960,70	92,0348	8,81281e-3
2961,40	92,1044	8,86915e-3
2962,10	92,1747	8,88255e-3
2962,80	92,2447	8,94179e-3
2963,50	92,3145	8,92961e-3
2964,20	92,3847	9,03796e-3
2964,90	92,4551	9,06198e-3
2965,60	92,5253	9,08371e-3
2966,30	92,5943	9,12516e-3
2967,00	92,6655	9,14601e-3
2967,70	92,7360	9,12230e-3
2968,40	92,8050	9,28678e-3
2969,10	92,8765	9,21091e-3
2969,80	92,9454	9,24231e-3
2970,50	93,0163	9,23046e-3
2971,20	93,0860	9,23099e-3
2971,90	93,1557	9,14133e-3
2972,60	93,2273	9,15769e-3
2973,30	93,2961	9,19725e-3
2974,00	93,3659	9,18226e-3
2974,70	93,4351	9,15634e-3
2975,40	93,5062	9,11639e-3
2976,10	93,5758	9,18402e-3
2976,80	93,6456	9,25559e-3
2977,50	93,7159	9,33447e-3
2978,20	93,7854	9,48862e-3
2978,90	93,8562	9,47232e-3
2979,60	93,9246	9,50497e-3
2980,30	93,9959	9,61796e-3
2981,00	94,0652	9,76947e-3
2981,70	94,1349	9,85595e-3
2982,40	94,2060	9,79287e-3
2983,10	94,2768	9,75838e-3
2983,80	94,3459	9,69213e-3
2984,50	94,4171	9,69637e-3
2985,20	94,4866	9,69007e-3
2985,90	94,5568	9,62016e-3
2986,60	94,6266	9,55488e-3
2987,30	94,6958	9,48238e-3
2988,00	94,7671	9,55589e-3
2988,70	94,8370	9,56398e-3
2989,40	94,9069	9,61504e-3
2990,10	94,9764	9,73721e-3
2990,80	95,0465	9,74391e-3
2991,50	95,1159	9,67042e-3
2992,20	95,1866	9,63002e-3
2992,90	95,2574	9,70391e-3
2993,60	95,3276	9,73412e-3
2994,30	95,3964	9,77548e-3
2995,00	95,4674	9,74714e-3
2995,70	95,5364	9,79466e-3
2996,40	95,6065	9,77682e-3
2997,10	95,6765	9,84766e-3
2997,80	95,7470	9,78703e-3
2998,50	95,8162	9,63947e-3
2999,20	95,8874	9,69008e-3
2999,90	95,9566	9,73346e-3
3000,60	96,0262	9,69808e-3
3001,30	96,0984	9,76192e-3
3002,00	96,1676	9,78193e-3
3002,70	96,2373	9,92394e-3
3003,40	96,3079	0,0100267
3004,10	96,3773	0,0100690
3004,80	96,4472	0,0100127
3005,50	96,5174	0,0100148
3006,20	96,5873	9,96413e-3
3006,90	96,6581	9,91068e-3
3007,60	96,7275	9,95930e-3
3008,30	96,7976	9,99761e-3
3009,00	96,8681	0,0100268
3009,70	96,9377	9,95636e-3
3010,40	97,0075	0,0100065
3011,10	97,0778	0,0100374
3011,80	97,1480	0,0100752
3012,50	97,2179	0,0101413
3013,20	97,2881	0,0101401
3013,90	97,3590	0,0102398
3014,60	97,4287	0,0102205
3015,30	97,4982	0,0102516
3016,00	97,5686	0,0103259
3016,70	97,6391	0,0103483
3017,40	97,7082	0,0103664
3018,10	97,7786	0,0103244
3018,80	97,8487	0,0103928
3019,50	97,9177	0,0103029
3020,20	97,9885	0,0103432
3020,90	98,0591	0,0103847
3021,60	98,1288	0,0103578
3022,30	98,1989	0,0105231
3023,00	98,2680	0,0105098
3023,70	98,3386	0,0105450
3024,40	98,4085	0,0104453
3025,10	98,4787	0,0103926
3025,80	98,5495	0,0104559
3026,50	98,6187	0,0105370
3027,20	98,6886
3027,90	98,7594
3028,60	98,8293
3029,30	98,8987
3030,00
3030,40