File: DSC_data/V. Soto/DSC_A1_2_0-100C_6Cmin_TXT.txt
Time	Temperature	Heat Flow (Normalized)
s	Â°C	W/g
60,0000	-0,132917	-0,163465
60,7000	-0,132321	-0,163489
61,4000	-0,132583	-0,163412
62,1000	-0,129116	-0,163270
62,8000	-0,126202	-0,155125
63,5000	-0,120258	-0,121613
64,2000	-0,110041	-0,0848358
64,9000	-0,0947496	-0,0490626
65,6000	-0,0756331	-8,46922e-3
66,3000	-0,0516435	0,0244020
67,0000	-0,0219488	0,0564364
67,7000	0,0128527	0,0812079
68,4000	0,0524771	0,0956726
69,1000	0,0955553	0,105962
69,8000	0,141449	0,110444
70,5000	0,191820	0,111062
71,2000	0,243602	0,105275
71,9000	0,299364	0,0954879
72,6000	0,355744	0,0875111
73,3000	0,415220	0,0777366
74,0000	0,475738	0,0658296
74,7000	0,536968	0,0454004
75,4000	0,601104	0,0432674
76,1000	0,663601	0,0271374
76,8000	0,727331	0,0172546
77,5000	0,793055	0,0124306
78,2000	0,858157	4,09227e-3
78,9000	0,924397	-3,50935e-3
79,6000	0,990462	-0,0103111
80,3000	1,05729	-0,0136293
81,0000	1,12337	-0,0185106
81,7000	1,19055	-0,0215228
82,4000	1,25745	-0,0228601
83,1000	1,32654	-0,0247820
83,8000	1,39323	-0,0272259
84,5000	1,46009	-0,0284826
85,2000	1,52980	-0,0293557
85,9000	1,59557	-0,0305686
86,6000	1,66539	-0,0312497
87,3000	1,73133	-0,0320332
88,0000	1,80071	-0,0323992
88,7000	1,86961	-0,0327550
89,4000	1,93703	-0,0330062
90,1000	2,00554	-0,0338237
90,8000	2,07528	-0,0340492
91,5000	2,14227	-0,0343525
92,2000	2,21156	-0,0346931
92,9000	2,28124	-0,0353517
93,6000	2,34951	-0,0355405
94,3000	2,41796	-0,0359140
95,0000	2,48711	-0,0361959
95,7000	2,55530	-0,0364092
96,4000	2,62515	-0,0366225
97,1000	2,69365	-0,0368760
97,8000	2,76118	-0,0370332
98,5000	2,83056	-0,0372349
99,2000	2,90014	-0,0374191
99,9000	2,97034	-0,0375301
100,600	3,03996	-0,0377429
101,300	3,10753	-0,0380033
102,000	3,17705	-0,0382263
102,700	3,24640	-0,0383708
103,400	3,31506	-0,0385806
104,100	3,38458	-0,0387723
104,800	3,45305	-0,0389230
105,500	3,52269	-0,0391027
106,200	3,59378	-0,0391906
106,900	3,66172	-0,0393044
107,600	3,73199	-0,0394705
108,300	3,80069	-0,0396463
109,000	3,87045	-0,0396975
109,700	3,93894	-0,0398155
110,400	4,00917	-0,0400112
111,100	4,07927	-0,0399617
111,800	4,14911	-0,0401553
112,500	4,21846	-0,0402555
113,200	4,28738	-0,0402069
113,900	4,35706	-0,0403027
114,600	4,42657	-0,0404459
115,300	4,49555	-0,0406330
116,000	4,56566	-0,0407328
116,700	4,63546	-0,0407365
117,400	4,70499	-0,0408986
118,100	4,77506	-0,0409785
118,800	4,84475	-0,0410061
119,500	4,91362	-0,0410543
120,200	4,98445	-0,0411190
120,900	5,05377	-0,0412208
121,600	5,12379	-0,0412376
122,300	5,19320	-0,0412498
123,000	5,26313	-0,0413141
123,700	5,33265	-0,0414401
124,400	5,40273	-0,0415698
125,100	5,47137	-0,0415415
125,800	5,54311	-0,0417353
126,500	5,61270	-0,0417646
127,200	5,68185	-0,0416925
127,900	5,75131	-0,0417994
128,600	5,82265	-0,0419166
129,300	5,89189	-0,0420359
130,000	5,96241	-0,0420669
130,700	6,03131	-0,0422191
131,400	6,10234	-0,0422503
132,100	6,17172	-0,0421398
132,800	6,24128	-0,0421125
133,500	6,31119	-0,0420129
134,200	6,38223	-0,0423814
134,900	6,45154	-0,0425636
135,600	6,52159	-0,0424204
136,300	6,59250	-0,0425625
137,000	6,66118	-0,0424956
137,700	6,73227	-0,0425592
138,400	6,80224	-0,0426525
139,100	6,87241	-0,0425832
139,800	6,94232	-0,0428187
140,500	7,01235	-0,0428783
141,200	7,08104	-0,0428603
141,900	7,15223	-0,0428681
142,600	7,22270	-0,0429947
143,300	7,29201	-0,0430178
144,000	7,36176	-0,0430105
144,700	7,43224	-0,0430875
145,400	7,50239	-0,0432696
146,100	7,57307	-0,0432334
146,800	7,64307	-0,0431902
147,500	7,71291	-0,0433136
148,200	7,78239	-0,0433554
148,900	7,85291	-0,0434192
149,600	7,92248	-0,0435188
150,300	7,99265	-0,0434490
151,000	8,06233	-0,0434647
151,700	8,13290	-0,0435033
152,400	8,20279	-0,0434259
153,100	8,27230	-0,0435575
153,800	8,34412	-0,0435589
154,500	8,41311	-0,0436405
155,200	8,48370	-0,0437078
155,900	8,55351	-0,0437538
156,600	8,62365	-0,0437894
157,300	8,69314	-0,0438668
158,000	8,76307	-0,0439586
158,700	8,83276	-0,0439300
159,400	8,90476	-0,0440080
160,100	8,97354	-0,0441108
160,800	9,04336	-0,0441491
161,500	9,11329	-0,0441931
162,200	9,18436	-0,0441646
162,900	9,25374	-0,0440893
163,600	9,32372	-0,0441220
164,300	9,39351	-0,0441327
165,000	9,46332	-0,0440458
165,700	9,53481	-0,0442044
166,400	9,60451	-0,0441399
167,100	9,67360	-0,0441287
167,800	9,74518	-0,0440728
168,500	9,81557	-0,0441600
169,200	9,88498	-0,0442118
169,900	9,95473	-0,0443057
170,600	10,0255	-0,0442474
171,300	10,0959	-0,0442984
172,000	10,1662	-0,0443875
172,700	10,2356	-0,0444897
173,400	10,3055	-0,0445689
174,100	10,3773	-0,0449463
174,800	10,4458	-0,0449191
175,500	10,5155	-0,0449259
176,200	10,5875	-0,0449985
176,900	10,6570	-0,0450433
177,600	10,7262	-0,0450710
178,300	10,7968	-0,0451616
179,000	10,8671	-0,0451580
179,700	10,9375	-0,0452398
180,400	11,0076	-0,0452527
181,100	11,0775	-0,0454424
181,800	11,1466	-0,0455027
182,500	11,2166	-0,0455505
183,200	11,2865	-0,0455539
183,900	11,3568	-0,0455589
184,600	11,4273	-0,0454791
185,300	11,4972	-0,0453862
186,000	11,5675	-0,0455563
186,700	11,6369	-0,0455642
187,400	11,7087	-0,0455199
188,100	11,7769	-0,0455395
188,800	11,8480	-0,0457424
189,500	11,9176	-0,0458846
190,200	11,9886	-0,0458833
190,900	12,0596	-0,0458818
191,600	12,1288	-0,0458749
192,300	12,1985	-0,0460153
193,000	12,2681	-0,0459832
193,700	12,3392	-0,0460318
194,400	12,4085	-0,0460253
195,100	12,4785	-0,0461388
195,800	12,5492	-0,0460996
196,500	12,6188	-0,0461857
197,200	12,6902	-0,0462226
197,900	12,7582	-0,0463138
198,600	12,8292	-0,0462744
199,300	12,9002	-0,0462789
200,000	12,9703	-0,0463350
200,700	13,0397	-0,0464322
201,400	13,1093	-0,0464250
202,100	13,1796	-0,0466178
202,800	13,2490	-0,0466331
203,500	13,3187	-0,0465923
204,200	13,3903	-0,0467658
204,900	13,4611	-0,0467338
205,600	13,5313	-0,0468271
206,300	13,6008	-0,0468083
207,000	13,6717	-0,0468402
207,700	13,7408	-0,0468530
208,400	13,8110	-0,0468294
209,100	13,8819	-0,0468652
209,800	13,9508	-0,0469606
210,500	14,0209	-0,0468597
211,200	14,0913	-0,0469235
211,900	14,1610	-0,0470019
212,600	14,2321	-0,0470667
213,300	14,3010	-0,0469963
214,000	14,3726	-0,0471213
214,700	14,4429	-0,0471405
215,400	14,5123	-0,0471914
216,100	14,5830	-0,0471924
216,800	14,6517	-0,0472531
217,500	14,7222	-0,0472558
218,200	14,7921	-0,0473036
218,900	14,8617	-0,0472758
219,600	14,9321	-0,0472693
220,300	15,0041	-0,0474090
221,000	15,0729	-0,0474125
221,700	15,1434	-0,0473963
222,400	15,2127	-0,0474505
223,100	15,2829	-0,0474160
223,800	15,3533	-0,0476084
224,500	15,4242	-0,0476056
225,200	15,4938	-0,0475904
225,900	15,5634	-0,0476280
226,600	15,6332	-0,0477155
227,300	15,7039	-0,0477444
228,000	15,7736	-0,0478039
228,700	15,8432	-0,0479196
229,400	15,9147	-0,0479756
230,100	15,9834	-0,0479368
230,800	16,0539	-0,0479879
231,500	16,1248	-0,0479266
232,200	16,1947	-0,0479664
232,900	16,2636	-0,0479543
233,600	16,3331	-0,0480106
234,300	16,4029	-0,0480059
235,000	16,4746	-0,0479785
235,700	16,5442	-0,0480300
236,400	16,6146	-0,0481222
237,100	16,6835	-0,0480873
237,800	16,7540	-0,0481337
238,500	16,8244	-0,0481615
239,200	16,8939	-0,0481432
239,900	16,9652	-0,0482438
240,600	17,0340	-0,0481914
241,300	17,1061	-0,0482604
242,000	17,1762	-0,0483383
242,700	17,2456	-0,0484335
243,400	17,3161	-0,0484345
244,100	17,3857	-0,0484572
244,800	17,4553	-0,0485845
245,500	17,5250	-0,0485163
246,200	17,5941	-0,0486201
246,900	17,6664	-0,0487414
247,600	17,7349	-0,0488027
248,300	17,8063	-0,0488389
249,000	17,8751	-0,0488152
249,700	17,9455	-0,0489248
250,400	18,0164	-0,0490378
251,100	18,0854	-0,0490727
251,800	18,1566	-0,0491724
252,500	18,2257	-0,0492112
253,200	18,2953	-0,0492377
253,900	18,3668	-0,0492927
254,600	18,4365	-0,0494216
255,300	18,5072	-0,0495125
256,000	18,5774	-0,0495734
256,700	18,6464	-0,0495363
257,400	18,7176	-0,0496096
258,100	18,7865	-0,0497425
258,800	18,8575	-0,0499444
259,500	18,9271	-0,0499209
260,200	18,9971	-0,0499850
260,900	19,0672	-0,0499373
261,600	19,1371	-0,0500422
262,300	19,2076	-0,0500936
263,000	19,2772	-0,0501970
263,700	19,3490	-0,0502696
264,400	19,4187	-0,0502821
265,100	19,4873	-0,0503312
265,800	19,5585	-0,0503764
266,500	19,6279	-0,0504739
267,200	19,6974	-0,0506884
267,900	19,7679	-0,0507394
268,600	19,8378	-0,0507839
269,300	19,9077	-0,0509048
270,000	19,9785	-0,0508805
270,700	20,0484	-0,0509384
271,400	20,1176	-0,0509482
272,100	20,1886	-0,0510818
272,800	20,2579	-0,0510818
273,500	20,3281	-0,0511627
274,200	20,3977	-0,0511253
274,900	20,4688	-0,0510686
275,600	20,5390	-0,0510738
276,300	20,6089	-0,0511284
277,000	20,6783	-0,0512261
277,700	20,7489	-0,0512485
278,400	20,8190	-0,0514058
279,100	20,8888	-0,0514398
279,800	20,9589	-0,0513654
280,500	21,0283	-0,0513847
281,200	21,0980	-0,0514943
281,900	21,1679	-0,0515173
282,600	21,2379	-0,0515841
283,300	21,3092	-0,0516968
284,000	21,3786	-0,0516498
284,700	21,4488	-0,0516408
285,400	21,5185	-0,0517001
286,100	21,5898	-0,0516924
286,800	21,6584	-0,0516761
287,500	21,7289	-0,0517618
288,200	21,7993	-0,0518064
288,900	21,8696	-0,0518383
289,600	21,9401	-0,0518446
290,300	22,0085	-0,0519533
291,000	22,0795	-0,0520696
291,700	22,1501	-0,0523167
292,400	22,2189	-0,0522873
293,100	22,2898	-0,0522460
293,800	22,3596	-0,0524008
294,500	22,4289	-0,0524347
295,200	22,5001	-0,0524781
295,900	22,5698	-0,0525381
296,600	22,6399	-0,0525468
297,300	22,7101	-0,0525456
298,000	22,7797	-0,0527456
298,700	22,8506	-0,0528522
299,400	22,9188	-0,0528660
300,100	22,9903	-0,0527755
300,800	23,0600	-0,0528827
301,500	23,1314	-0,0528926
302,200	23,1988	-0,0530374
302,900	23,2700	-0,0530735
303,600	23,3399	-0,0530822
304,300	23,4087	-0,0532239
305,000	23,4795	-0,0533951
305,700	23,5503	-0,0534389
306,400	23,6204	-0,0534779
307,100	23,6894	-0,0534998
307,800	23,7604	-0,0535569
308,500	23,8303	-0,0535351
309,200	23,9004	-0,0536537
309,900	23,9710	-0,0537006
310,600	24,0410	-0,0539053
311,300	24,1104	-0,0538946
312,000	24,1809	-0,0539248
312,700	24,2507	-0,0539535
313,400	24,3200	-0,0540856
314,100	24,3908	-0,0541752
314,800	24,4597	-0,0542126
315,500	24,5296	-0,0543146
316,200	24,6000	-0,0542434
316,900	24,6703	-0,0543292
317,600	24,7410	-0,0544366
318,300	24,8112	-0,0544936
319,000	24,8805	-0,0545539
319,700	24,9519	-0,0545857
320,400	25,0215	-0,0546203
321,100	25,0915	-0,0546967
321,800	25,1616	-0,0546247
322,500	25,2308	-0,0548071
323,200	25,3017	-0,0549427
323,900	25,3713	-0,0549270
324,600	25,4420	-0,0549440
325,300	25,5120	-0,0550501
326,000	25,5814	-0,0551510
326,700	25,6526	-0,0552897
327,400	25,7213	-0,0553234
328,100	25,7917	-0,0553090
328,800	25,8613	-0,0555714
329,500	25,9318	-0,0558391
330,200	26,0019	-0,0555666
330,900	26,0726	-0,0558872
331,600	26,1424	-0,0557987
332,300	26,2135	-0,0558638
333,000	26,2822	-0,0558151
333,700	26,3519	-0,0558213
334,400	26,4227	-0,0561726
335,100	26,4936	-0,0562562
335,800	26,5630	-0,0562903
336,500	26,6322	-0,0564336
337,200	26,7036	-0,0565078
337,900	26,7728	-0,0566270
338,600	26,8425	-0,0565831
339,300	26,9130	-0,0566956
340,000	26,9822	-0,0567751
340,700	27,0529	-0,0567660
341,400	27,1232	-0,0569038
342,100	27,1924	-0,0568191
342,800	27,2637	-0,0568926
343,500	27,3335	-0,0568760
344,200	27,4034	-0,0569449
344,900	27,4734	-0,0569019
345,600	27,5422	-0,0569981
346,300	27,6134	-0,0571075
347,000	27,6834	-0,0571695
347,700	27,7532	-0,0571711
348,400	27,8239	-0,0572267
349,100	27,8939	-0,0573199
349,800	27,9627	-0,0573239
350,500	28,0330	-0,0574423
351,200	28,1037	-0,0575348
351,900	28,1748	-0,0576319
352,600	28,2434	-0,0577422
353,300	28,3137	-0,0576847
354,000	28,3833	-0,0577878
354,700	28,4532	-0,0578090
355,400	28,5238	-0,0578265
356,100	28,5944	-0,0578881
356,800	28,6644	-0,0579688
357,500	28,7337	-0,0581502
358,200	28,8045	-0,0581263
358,900	28,8742	-0,0584045
359,600	28,9439	-0,0584475
360,300	29,0142	-0,0584785
361,000	29,0838	-0,0584736
361,700	29,1541	-0,0584640
362,400	29,2244	-0,0585153
363,100	29,2951	-0,0583863
363,800	29,3635	-0,0585033
364,500	29,4345	-0,0585855
365,200	29,5031	-0,0588421
365,900	29,5758	-0,0589043
366,600	29,6448	-0,0590450
367,300	29,7152	-0,0590672
368,000	29,7846	-0,0590554
368,700	29,8555	-0,0591423
369,400	29,9246	-0,0592093
370,100	29,9949	-0,0592346
370,800	30,0661	-0,0593316
371,500	30,1355	-0,0594756
372,200	30,2050	-0,0596015
372,900	30,2756	-0,0596611
373,600	30,3445	-0,0598353
374,300	30,4152	-0,0597900
375,000	30,4847	-0,0598659
375,700	30,5552	-0,0599249
376,400	30,6267	-0,0599700
377,100	30,6945	-0,0599501
377,800	30,7663	-0,0599723
378,500	30,8348	-0,0600900
379,200	30,9057	-0,0602504
379,900	30,9750	-0,0603200
380,600	31,0466	-0,0603418
381,300	31,1166	-0,0604353
382,000	31,1860	-0,0605387
382,700	31,2557	-0,0606236
383,400	31,3260	-0,0607577
384,100	31,3969	-0,0608370
384,800	31,4666	-0,0608231
385,500	31,5373	-0,0609249
386,200	31,6066	-0,0611095
386,900	31,6758	-0,0611436
387,600	31,7455	-0,0612411
388,300	31,8162	-0,0611977
389,000	31,8862	-0,0613239
389,700	31,9557	-0,0613386
390,400	32,0274	-0,0613587
391,100	32,0956	-0,0614645
391,800	32,1668	-0,0615585
392,500	32,2365	-0,0615603
393,200	32,3074	-0,0616774
393,900	32,3761	-0,0617507
394,600	32,4474	-0,0618317
395,300	32,5159	-0,0618487
396,000	32,5857	-0,0619623
396,700	32,6569	-0,0619567
397,400	32,7255	-0,0621029
398,100	32,7965	-0,0620715
398,800	32,8666	-0,0620843
399,500	32,9380	-0,0622375
400,200	33,0059	-0,0622386
400,900	33,0763	-0,0623171
401,600	33,1483	-0,0623412
402,300	33,2170	-0,0624342
403,000	33,2877	-0,0625305
403,700	33,3565	-0,0625494
404,400	33,4271	-0,0627174
405,100	33,4970	-0,0627619
405,800	33,5670	-0,0628258
406,500	33,6368	-0,0630326
407,200	33,7071	-0,0630464
407,900	33,7774	-0,0629291
408,600	33,8478	-0,0633315
409,300	33,9177	-0,0633866
410,000	33,9868	-0,0634297
410,700	34,0580	-0,0636354
411,400	34,1287	-0,0637001
412,100	34,1979	-0,0636863
412,800	34,2684	-0,0638823
413,500	34,3378	-0,0639179
414,200	34,4079	-0,0640331
414,900	34,4779	-0,0640883
415,600	34,5492	-0,0641339
416,300	34,6187	-0,0640689
417,000	34,6889	-0,0640727
417,700	34,7579	-0,0643038
418,400	34,8276	-0,0643439
419,100	34,8981	-0,0645176
419,800	34,9679	-0,0646511
420,500	35,0389	-0,0646431
421,200	35,1083	-0,0646055
421,900	35,1779	-0,0647175
422,600	35,2482	-0,0647563
423,300	35,3184	-0,0648056
424,000	35,3889	-0,0648399
424,700	35,4591	-0,0650029
425,400	35,5289	-0,0649962
426,100	35,5991	-0,0651304
426,800	35,6690	-0,0651972
427,500	35,7392	-0,0653695
428,200	35,8089	-0,0655470
428,900	35,8784	-0,0655740
429,600	35,9493	-0,0655863
430,300	36,0186	-0,0656755
431,000	36,0889	-0,0657312
431,700	36,1587	-0,0659432
432,400	36,2289	-0,0659786
433,100	36,2995	-0,0660309
433,800	36,3694	-0,0661231
434,500	36,4386	-0,0662556
435,200	36,5084	-0,0662834
435,900	36,5790	-0,0664518
436,600	36,6499	-0,0665504
437,300	36,7192	-0,0666481
438,000	36,7897	-0,0667039
438,700	36,8592	-0,0667266
439,400	36,9304	-0,0667030
440,100	36,9997	-0,0667774
440,800	37,0690	-0,0669161
441,500	37,1406	-0,0669463
442,200	37,2089	-0,0669380
442,900	37,2795	-0,0670683
443,600	37,3493	-0,0671614
444,300	37,4196	-0,0672967
445,000	37,4897	-0,0674068
445,700	37,5591	-0,0674941
446,400	37,6296	-0,0674899
447,100	37,6999	-0,0676444
447,800	37,7710	-0,0677511
448,500	37,8404	-0,0678408
449,200	37,9106	-0,0679798
449,900	37,9800	-0,0681607
450,600	38,0510	-0,0682643
451,300	38,1199	-0,0684270
452,000	38,1894	-0,0685364
452,700	38,2612	-0,0686923
453,400	38,3307	-0,0687251
454,100	38,4004	-0,0687432
454,800	38,4710	-0,0688975
455,500	38,5406	-0,0689741
456,200	38,6099	-0,0690041
456,900	38,6801	-0,0690848
457,600	38,7504	-0,0691761
458,300	38,8211	-0,0692076
459,000	38,8915	-0,0693317
459,700	38,9619	-0,0693639
460,400	39,0313	-0,0693693
461,100	39,1017	-0,0695094
461,800	39,1701	-0,0696496
462,500	39,2417	-0,0697079
463,200	39,3108	-0,0698250
463,900	39,3810	-0,0699518
464,600	39,4505	-0,0700127
465,300	39,5215	-0,0701374
466,000	39,5904	-0,0701552
466,700	39,6605	-0,0701319
467,400	39,7308	-0,0702634
468,100	39,8016	-0,0703492
468,800	39,8707	-0,0704008
469,500	39,9414	-0,0704608
470,200	40,0115	-0,0705001
470,900	40,0811	-0,0705925
471,600	40,1512	-0,0706298
472,300	40,2211	-0,0707079
473,000	40,2911	-0,0707644
473,700	40,3612	-0,0708178
474,400	40,4327	-0,0709605
475,100	40,5018	-0,0709549
475,800	40,5714	-0,0709603
476,500	40,6407	-0,0710573
477,200	40,7113	-0,0711654
477,900	40,7809	-0,0712449
478,600	40,8523	-0,0713446
479,300	40,9219	-0,0715064
480,000	40,9915	-0,0716102
480,700	41,0612	-0,0716716
481,400	41,1318	-0,0717459
482,100	41,2009	-0,0717319
482,800	41,2718	-0,0717660
483,500	41,3429	-0,0719222
484,200	41,4121	-0,0719496
484,900	41,4817	-0,0719532
485,600	41,5521	-0,0720560
486,300	41,6228	-0,0721618
487,000	41,6925	-0,0721999
487,700	41,7622	-0,0722741
488,400	41,8331	-0,0724272
489,100	41,9018	-0,0724748
489,800	41,9717	-0,0725153
490,500	42,0428	-0,0726449
491,200	42,1129	-0,0728152
491,900	42,1827	-0,0727817
492,600	42,2529	-0,0727762
493,300	42,3226	-0,0728775
494,000	42,3937	-0,0729151
494,700	42,4624	-0,0729818
495,400	42,5325	-0,0730711
496,100	42,6022	-0,0730659
496,800	42,6740	-0,0732315
497,500	42,7431	-0,0732218
498,200	42,8135	-0,0733109
498,900	42,8827	-0,0735351
499,600	42,9536	-0,0735983
500,300	43,0233	-0,0736945
501,000	43,0929	-0,0737043
501,700	43,1633	-0,0738980
502,400	43,2339	-0,0739541
503,100	43,3042	-0,0739892
503,800	43,3731	-0,0740900
504,500	43,4435	-0,0741550
505,200	43,5142	-0,0742430
505,900	43,5833	-0,0745106
506,600	43,6540	-0,0746076
507,300	43,7240	-0,0746801
508,000	43,7925	-0,0747703
508,700	43,8635	-0,0748868
509,400	43,9343	-0,0749074
510,100	44,0027	-0,0749893
510,800	44,0732	-0,0750248
511,500	44,1443	-0,0749611
512,200	44,2143	-0,0750197
512,900	44,2844	-0,0750538
513,600	44,3530	-0,0751785
514,300	44,4226	-0,0751911
515,000	44,4931	-0,0753234
515,700	44,5640	-0,0754456
516,400	44,6336	-0,0755121
517,100	44,7046	-0,0756692
517,800	44,7738	-0,0754646
518,500	44,8443	-0,0757690
519,200	44,9150	-0,0757879
519,900	44,9855	-0,0759068
520,600	45,0559	-0,0760931
521,300	45,1234	-0,0761176
522,000	45,1938	-0,0762855
522,700	45,2641	-0,0764155
523,400	45,3346	-0,0764501
524,100	45,4047	-0,0766385
524,800	45,4745	-0,0763182
525,500	45,5447	-0,0764207
526,200	45,6157	-0,0764782
526,900	45,6858	-0,0765344
527,600	45,7547	-0,0765925
528,300	45,8245	-0,0766596
529,000	45,8957	-0,0767672
529,700	45,9654	-0,0768223
530,400	46,0356	-0,0769820
531,100	46,1049	-0,0770743
531,800	46,1747	-0,0770618
532,500	46,2455	-0,0771498
533,200	46,3152	-0,0771931
533,900	46,3862	-0,0774272
534,600	46,4547	-0,0773297
535,300	46,5254	-0,0774806
536,000	46,5958	-0,0774555
536,700	46,6656	-0,0776026
537,400	46,7351	-0,0776307
538,100	46,8053	-0,0777014
538,800	46,8750	-0,0777733
539,500	46,9441	-0,0777685
540,200	47,0144	-0,0778482
540,900	47,0855	-0,0779880
541,600	47,1565	-0,0780260
542,300	47,2252	-0,0780421
543,000	47,2954	-0,0781213
543,700	47,3665	-0,0781460
544,400	47,4366	-0,0781657
545,100	47,5062	-0,0781722
545,800	47,5761	-0,0782123
546,500	47,6462	-0,0783573
547,200	47,7156	-0,0784314
547,900	47,7854	-0,0784430
548,600	47,8557	-0,0785383
549,300	47,9252	-0,0786034
550,000	47,9968	-0,0784648
550,700	48,0674	-0,0785318
551,400	48,1358	-0,0786195
552,100	48,2068	-0,0785622
552,800	48,2763	-0,0785911
553,500	48,3461	-0,0785143
554,200	48,4160	-0,0786234
554,900	48,4840	-0,0787604
555,600	48,5546	-0,0788687
556,300	48,6252	-0,0789178
557,000	48,6951	-0,0789381
557,700	48,7666	-0,0789817
558,400	48,8374	-0,0789379
559,100	48,9075	-0,0790363
559,800	48,9782	-0,0790254
560,500	49,0472	-0,0791990
561,200	49,1176	-0,0792698
561,900	49,1870	-0,0796495
562,600	49,2575	-0,0797851
563,300	49,3268	-0,0799547
564,000	49,3975	-0,0799875
564,700	49,4661	-0,0799152
565,400	49,5366	-0,0799743
566,100	49,6072	-0,0799165
566,800	49,6764	-0,0798901
567,500	49,7458	-0,0799165
568,200	49,8161	-0,0798202
568,900	49,8860	-0,0798590
569,600	49,9555	-0,0798582
570,300	50,0273	-0,0800158
571,000	50,0980	-0,0800808
571,700	50,1687	-0,0799913
572,400	50,2382	-0,0798351
573,100	50,3082	-0,0799575
573,800	50,3773	-0,0799998
574,500	50,4487	-0,0803022
575,200	50,5175	-0,0804716
575,900	50,5888	-0,0805504
576,600	50,6584	-0,0804390
577,300	50,7279	-0,0805605
578,000	50,7974	-0,0806810
578,700	50,8682	-0,0806946
579,400	50,9379	-0,0806831
580,100	51,0079	-0,0806326
580,800	51,0781	-0,0807087
581,500	51,1481	-0,0805662
582,200	51,2178	-0,0807830
582,900	51,2885	-0,0807689
583,600	51,3575	-0,0807636
584,300	51,4289	-0,0807995
585,000	51,4983	-0,0808284
585,700	51,5685	-0,0808560
586,400	51,6383	-0,0808821
587,100	51,7085	-0,0807172
587,800	51,7788	-0,0807957
588,500	51,8496	-0,0807727
589,200	51,9181	-0,0808560
589,900	51,9883	-0,0808034
590,600	52,0577	-0,0809236
591,300	52,1288	-0,0809684
592,000	52,1986	-0,0808774
592,700	52,2691	-0,0809694
593,400	52,3385	-0,0808835
594,100	52,4092	-0,0808937
594,800	52,4788	-0,0808489
595,500	52,5494	-0,0809257
596,200	52,6191	-0,0808820
596,900	52,6893	-0,0807751
597,600	52,7592	-0,0808065
598,300	52,8302	-0,0808753
599,000	52,8992	-0,0809098
599,700	52,9691	-0,0808866
600,400	53,0402	-0,0810320
601,100	53,1098	-0,0809556
601,800	53,1790	-0,0809624
602,500	53,2492	-0,0809831
603,200	53,3193	-0,0809951
603,900	53,3894	-0,0809423
604,600	53,4596	-0,0809690
605,300	53,5291	-0,0809656
606,000	53,5996	-0,0807863
606,700	53,6697	-0,0808908
607,400	53,7404	-0,0810409
608,100	53,8086	-0,0810050
608,800	53,8793	-0,0811112
609,500	53,9497	-0,0811575
610,200	54,0196	-0,0811173
610,900	54,0892	-0,0807514
611,600	54,1601	-0,0809154
612,300	54,2301	-0,0808995
613,000	54,3010	-0,0809564
613,700	54,3711	-0,0809861
614,400	54,4400	-0,0809870
615,100	54,5106	-0,0811093
615,800	54,5811	-0,0812407
616,500	54,6506	-0,0814132
617,200	54,7213	-0,0813858
617,900	54,7910	-0,0809971
618,600	54,8598	-0,0811809
619,300	54,9305	-0,0812749
620,000	55,0007	-0,0812416
620,700	55,0701	-0,0812442
621,400	55,1399	-0,0811864
622,100	55,2103	-0,0811723
622,800	55,2798	-0,0811521
623,500	55,3502	-0,0810554
624,200	55,4202	-0,0811620
624,900	55,4912	-0,0811751
625,600	55,5606	-0,0810762
626,300	55,6297	-0,0810656
627,000	55,7001	-0,0810480
627,700	55,7710	-0,0810935
628,400	55,8403	-0,0810827
629,100	55,9108	-0,0809174
629,800	55,9812	-0,0809893
630,500	56,0516	-0,0810374
631,200	56,1225	-0,0810311
631,900	56,1909	-0,0809795
632,600	56,2612	-0,0810565
633,300	56,3320	-0,0810619
634,000	56,4014	-0,0810770
634,700	56,4711	-0,0811070
635,400	56,5412	-0,0810847
636,100	56,6112	-0,0810199
636,800	56,6815	-0,0809968
637,500	56,7521	-0,0808803
638,200	56,8221	-0,0808706
638,900	56,8914	-0,0809268
639,600	56,9619	-0,0809007
640,300	57,0316	-0,0809786
641,000	57,1027	-0,0809775
641,700	57,1721	-0,0809611
642,400	57,2417	-0,0808989
643,100	57,3121	-0,0808647
643,800	57,3822	-0,0808031
644,500	57,4530	-0,0809019
645,200	57,5230	-0,0808344
645,900	57,5927	-0,0807596
646,600	57,6622	-0,0807858
647,300	57,7328	-0,0808472
648,000	57,8025	-0,0807839
648,700	57,8724	-0,0808416
649,400	57,9426	-0,0808777
650,100	58,0117	-0,0808993
650,800	58,0835	-0,0808491
651,500	58,1536	-0,0807504
652,200	58,2227	-0,0807077
652,900	58,2938	-0,0807626
653,600	58,3627	-0,0806596
654,300	58,4332	-0,0807474
655,000	58,5034	-0,0805882
655,700	58,5732	-0,0805678
656,400	58,6436	-0,0805150
657,100	58,7138	-0,0804848
657,800	58,7830	-0,0805085
658,500	58,8533	-0,0805038
659,200	58,9235	-0,0804547
659,900	58,9936	-0,0804632
660,600	59,0642	-0,0803910
661,300	59,1338	-0,0803966
662,000	59,2040	-0,0803178
662,700	59,2728	-0,0803352
663,400	59,3437	-0,0802528
664,100	59,4138	-0,0802212
664,800	59,4839	-0,0801486
665,500	59,5545	-0,0800819
666,200	59,6246	-0,0800177
666,900	59,6945	-0,0799217
667,600	59,7643	-0,0799416
668,300	59,8346	-0,0798997
669,000	59,9048	-0,0799358
669,700	59,9745	-0,0797913
670,400	60,0454	-0,0798195
671,100	60,1148	-0,0797461
671,800	60,1851	-0,0797861
672,500	60,2540	-0,0798093
673,200	60,3252	-0,0798032
673,900	60,3949	-0,0798555
674,600	60,4647	-0,0798643
675,300	60,5356	-0,0798392
676,000	60,6053	-0,0797562
676,700	60,6764	-0,0796300
677,400	60,7457	-0,0795788
678,100	60,8150	-0,0795984
678,800	60,8860	-0,0795893
679,500	60,9561	-0,0795385
680,200	61,0263	-0,0795607
680,900	61,0952	-0,0795577
681,600	61,1649	-0,0794500
682,300	61,2362	-0,0795103
683,000	61,3050	-0,0795276
683,700	61,3761	-0,0794599
684,400	61,4459	-0,0794513
685,100	61,5160	-0,0794832
685,800	61,5854	-0,0794689
686,500	61,6561	-0,0793064
687,200	61,7257	-0,0792572
687,900	61,7966	-0,0792272
688,600	61,8657	-0,0792127
689,300	61,9358	-0,0790991
690,000	62,0058	-0,0791185
690,700	62,0767	-0,0790361
691,400	62,1461	-0,0789871
692,100	62,2164	-0,0790433
692,800	62,2867	-0,0789693
693,500	62,3567	-0,0788010
694,200	62,4270	-0,0787792
694,900	62,4970	-0,0786692
695,600	62,5664	-0,0786883
696,300	62,6361	-0,0785334
697,000	62,7058	-0,0785413
697,700	62,7759	-0,0785172
698,400	62,8467	-0,0783766
699,100	62,9168	-0,0783020
699,800	62,9868	-0,0782053
700,500	63,0568	-0,0779899
701,200	63,1273	-0,0778700
701,900	63,1967	-0,0778905
702,600	63,2670	-0,0779464
703,300	63,3370	-0,0779245
704,000	63,4062	-0,0779570
704,700	63,4780	-0,0779498
705,400	63,5485	-0,0778834
706,100	63,6172	-0,0778264
706,800	63,6873	-0,0778059
707,500	63,7581	-0,0777440
708,200	63,8270	-0,0776600
708,900	63,8972	-0,0775921
709,600	63,9682	-0,0774814
710,300	64,0377	-0,0774510
711,000	64,1067	-0,0774481
711,700	64,1772	-0,0773733
712,400	64,2474	-0,0772153
713,100	64,3171	-0,0771074
713,800	64,3881	-0,0769642
714,500	64,4590	-0,0770303
715,200	64,5280	-0,0769288
715,900	64,5974	-0,0768260
716,600	64,6678	-0,0764973
717,300	64,7371	-0,0766489
718,000	64,8088	-0,0765870
718,700	64,8784	-0,0764975
719,400	64,9485	-0,0763965
720,100	65,0188	-0,0763987
720,800	65,0893	-0,0762760
721,500	65,1591	-0,0762644
722,200	65,2288	-0,0764434
722,900	65,2984	-0,0763941
723,600	65,3693	-0,0764966
724,300	65,4380	-0,0763771
725,000	65,5084	-0,0762286
725,700	65,5785	-0,0762305
726,400	65,6491	-0,0758841
727,100	65,7191	-0,0757034
727,800	65,7881	-0,0756806
728,500	65,8585	-0,0755807
729,200	65,9278	-0,0756250
729,900	65,9991	-0,0755907
730,600	66,0697	-0,0755526
731,300	66,1399	-0,0754602
732,000	66,2097	-0,0754777
732,700	66,2787	-0,0755494
733,400	66,3506	-0,0755001
734,100	66,4194	-0,0753206
734,800	66,4894	-0,0751263
735,500	66,5593	-0,0752190
736,200	66,6295	-0,0750782
736,900	66,7002	-0,0749943
737,600	66,7700	-0,0747312
738,300	66,8399	-0,0746293
739,000	66,9104	-0,0745923
739,700	66,9799	-0,0745901
740,400	67,0506	-0,0745200
741,100	67,1207	-0,0745392
741,800	67,1905	-0,0744661
742,500	67,2599	-0,0744152
743,200	67,3297	-0,0743552
743,900	67,4005	-0,0743760
744,600	67,4702	-0,0743648
745,300	67,5393	-0,0743338
746,000	67,6094	-0,0741929
746,700	67,6797	-0,0740101
747,400	67,7518	-0,0739245
748,100	67,8204	-0,0738880
748,800	67,8903	-0,0738224
749,500	67,9606	-0,0736775
750,200	68,0307	-0,0735442
750,900	68,1018	-0,0735204
751,600	68,1712	-0,0734699
752,300	68,2414	-0,0734688
753,000	68,3117	-0,0734271
753,700	68,3817	-0,0734535
754,400	68,4512	-0,0734345
755,100	68,5215	-0,0733805
755,800	68,5916	-0,0734236
756,500	68,6618	-0,0732956
757,200	68,7317	-0,0731382
757,900	68,8009	-0,0730410
758,600	68,8714	-0,0729667
759,300	68,9425	-0,0729131
760,000	69,0113	-0,0727997
760,700	69,0816	-0,0726544
761,400	69,1521	-0,0726505
762,100	69,2217	-0,0725780
762,800	69,2918	-0,0724971
763,500	69,3613	-0,0724964
764,200	69,4315	-0,0724451
764,900	69,5025	-0,0723865
765,600	69,5711	-0,0722744
766,300	69,6422	-0,0721210
767,000	69,7114	-0,0719217
767,700	69,7825	-0,0720463
768,400	69,8514	-0,0717178
769,100	69,9220	-0,0715234
769,800	69,9925	-0,0713744
770,500	70,0620	-0,0714973
771,200	70,1326	-0,0713206
771,900	70,2020	-0,0713209
772,600	70,2733	-0,0713303
773,300	70,3426	-0,0713027
774,000	70,4118	-0,0711843
774,700	70,4819	-0,0710597
775,400	70,5519	-0,0709008
776,100	70,6230	-0,0707533
776,800	70,6923	-0,0706558
777,500	70,7624	-0,0706143
778,200	70,8334	-0,0705658
778,900	70,9025	-0,0704920
779,600	70,9724	-0,0704801
780,300	71,0431	-0,0703729
781,000	71,1133	-0,0702615
781,700	71,1835	-0,0702613
782,400	71,2535	-0,0700899
783,100	71,3228	-0,0700551
783,800	71,3923	-0,0699679
784,500	71,4621	-0,0698957
785,200	71,5327	-0,0697763
785,900	71,6038	-0,0698344
786,600	71,6732	-0,0696398
787,300	71,7432	-0,0693790
788,000	71,8137	-0,0693614
788,700	71,8831	-0,0692985
789,400	71,9539	-0,0693456
790,100	72,0244	-0,0692393
790,800	72,0946	-0,0690941
791,500	72,1641	-0,0690591
792,200	72,2343	-0,0689842
792,900	72,3038	-0,0688168
793,600	72,3751	-0,0688426
794,300	72,4435	-0,0687084
795,000	72,5143	-0,0687184
795,700	72,5840	-0,0685556
796,400	72,6531	-0,0684753
797,100	72,7252	-0,0684376
797,800	72,7942	-0,0682907
798,500	72,8647	-0,0680940
799,200	72,9355	-0,0680290
799,900	73,0050	-0,0679591
800,600	73,0753	-0,0678661
801,300	73,1448	-0,0678840
802,000	73,2141	-0,0678699
802,700	73,2834	-0,0675124
803,400	73,3535	-0,0672862
804,100	73,4243	-0,0672419
804,800	73,4946	-0,0670074
805,500	73,5660	-0,0668697
806,200	73,6357	-0,0667677
806,900	73,7060	-0,0666104
807,600	73,7758	-0,0665880
808,300	73,8461	-0,0665872
809,000	73,9164	-0,0665954
809,700	73,9855	-0,0665456
810,400	74,0559	-0,0664631
811,100	74,1254	-0,0663500
811,800	74,1962	-0,0662911
812,500	74,2658	-0,0662400
813,200	74,3364	-0,0661812
813,900	74,4060	-0,0661997
814,600	74,4769	-0,0660514
815,300	74,5454	-0,0658772
816,000	74,6164	-0,0657392
816,700	74,6864	-0,0656761
817,400	74,7549	-0,0656553
818,100	74,8256	-0,0656259
818,800	74,8956	-0,0656401
819,500	74,9658	-0,0655291
820,200	75,0371	-0,0653285
820,900	75,1075	-0,0652916
821,600	75,1769	-0,0651818
822,300	75,2467	-0,0651145
823,000	75,3169	-0,0644506
823,700	75,3872	-0,0644060
824,400	75,4564	-0,0644503
825,100	75,5264	-0,0645359
825,800	75,5962	-0,0643119
826,500	75,6675	-0,0642400
827,200	75,7368	-0,0641737
827,900	75,8073	-0,0642043
828,600	75,8771	-0,0642823
829,300	75,9473	-0,0642075
830,000	76,0170	-0,0641406
830,700	76,0877	-0,0641875
831,400	76,1580	-0,0640829
832,100	76,2283	-0,0640286
832,800	76,2977	-0,0638189
833,500	76,3674	-0,0636589
834,200	76,4390	-0,0637565
834,900	76,5076	-0,0637058
835,600	76,5780	-0,0635420
836,300	76,6488	-0,0635224
837,000	76,7193	-0,0635319
837,700	76,7888	-0,0634088
838,400	76,8582	-0,0633231
839,100	76,9285	-0,0631701
839,800	76,9988	-0,0633576
840,500	77,0689	-0,0633319
841,200	77,1390	-0,0631591
841,900	77,2085	-0,0631159
842,600	77,2787	-0,0629802
843,300	77,3495	-0,0630026
844,000	77,4180	-0,0627703
844,700	77,4876	-0,0628525
845,400	77,5586	-0,0626396
846,100	77,6289	-0,0626093
846,800	77,6995	-0,0625112
847,500	77,7685	-0,0622349
848,200	77,8393	-0,0622409
848,900	77,9092	-0,0621050
849,600	77,9790	-0,0619568
850,300	78,0498	-0,0619370
851,000	78,1191	-0,0618787
851,700	78,1891	-0,0618854
852,400	78,2598	-0,0618411
853,100	78,3291	-0,0617072
853,800	78,4000	-0,0615533
854,500	78,4705	-0,0614202
855,200	78,5391	-0,0613879
855,900	78,6102	-0,0613230
856,600	78,6796	-0,0612642
857,300	78,7501	-0,0612716
858,000	78,8197	-0,0610334
858,700	78,8896	-0,0608290
859,400	78,9597	-0,0607454
860,100	79,0302	-0,0605881
860,800	79,1001	-0,0606029
861,500	79,1701	-0,0605390
862,200	79,2411	-0,0603145
862,900	79,3106	-0,0602248
863,600	79,3799	-0,0601872
864,300	79,4497	-0,0600065
865,000	79,5202	-0,0599857
865,700	79,5901	-0,0598974
866,400	79,6596	-0,0597625
867,100	79,7310	-0,0597516
867,800	79,8005	-0,0594298
868,500	79,8706	-0,0592155
869,200	79,9410	-0,0592084
869,900	80,0113	-0,0591128
870,600	80,0813	-0,0590446
871,300	80,1514	-0,0589659
872,000	80,2211	-0,0588347
872,700	80,2921	-0,0587856
873,400	80,3618	-0,0586932
874,100	80,4305	-0,0586466
874,800	80,5014	-0,0585788
875,500	80,5715	-0,0586087
876,200	80,6417	-0,0584841
876,900	80,7111	-0,0583933
877,600	80,7817	-0,0582594
878,300	80,8518	-0,0581329
879,000	80,9213	-0,0580595
879,700	80,9915	-0,0577983
880,400	81,0603	-0,0578013
881,100	81,1310	-0,0577528
881,800	81,2020	-0,0578074
882,500	81,2711	-0,0577367
883,200	81,3415	-0,0576747
883,900	81,4113	-0,0575729
884,600	81,4811	-0,0574416
885,300	81,5525	-0,0573271
886,000	81,6222	-0,0571256
886,700	81,6921	-0,0570952
887,400	81,7618	-0,0569335
888,100	81,8325	-0,0568664
888,800	81,9020	-0,0567653
889,500	81,9719	-0,0567070
890,200	82,0436	-0,0567123
890,900	82,1131	-0,0566090
891,600	82,1836	-0,0564880
892,300	82,2544	-0,0565599
893,000	82,3234	-0,0563228
893,700	82,3938	-0,0562688
894,400	82,4641	-0,0562028
895,100	82,5329	-0,0561323
895,800	82,6041	-0,0559714
896,500	82,6733	-0,0557547
897,200	82,7432	-0,0556587
897,900	82,8128	-0,0554934
898,600	82,8832	-0,0553965
899,300	82,9542	-0,0552630
900,000	83,0234	-0,0551482
900,700	83,0939	-0,0549580
901,400	83,1643	-0,0549252
902,100	83,2346	-0,0550706
902,800	83,3049	-0,0550990
903,500	83,3740	-0,0545965
904,200	83,4447	-0,0546608
904,900	83,5151	-0,0545883
905,600	83,5847	-0,0545233
906,300	83,6560	-0,0544463
907,000	83,7232	-0,0543474
907,700	83,7944	-0,0545163
908,400	83,8650	-0,0545786
909,100	83,9346	-0,0544513
909,800	84,0046	-0,0543034
910,500	84,0746	-0,0541450
911,200	84,1438	-0,0541076
911,900	84,2144	-0,0539304
912,600	84,2857	-0,0539403
913,300	84,3552	-0,0537044
914,000	84,4245	-0,0535763
914,700	84,4958	-0,0536130
915,400	84,5656	-0,0537838
916,100	84,6354	-0,0537508
916,800	84,7049	-0,0536960
917,500	84,7760	-0,0536564
918,200	84,8450	-0,0536353
918,900	84,9146	-0,0534678
919,600	84,9849	-0,0534248
920,300	85,0547	-0,0532059
921,000	85,1257	-0,0530395
921,700	85,1951	-0,0529856
922,400	85,2652	-0,0528579
923,100	85,3345	-0,0528022
923,800	85,4061	-0,0527724
924,500	85,4762	-0,0526241
925,200	85,5462	-0,0525131
925,900	85,6151	-0,0524474
926,600	85,6856	-0,0523279
927,300	85,7552	-0,0521391
928,000	85,8259	-0,0520990
928,700	85,8952	-0,0519943
929,400	85,9657	-0,0518695
930,100	86,0356	-0,0517448
930,800	86,1063	-0,0517294
931,500	86,1765	-0,0515376
932,200	86,2459	-0,0513952
932,900	86,3162	-0,0513478
933,600	86,3873	-0,0512911
934,300	86,4574	-0,0512554
935,000	86,5276	-0,0511151
935,700	86,5975	-0,0513098
936,400	86,6673	-0,0511881
937,100	86,7372	-0,0510275
937,800	86,8076	-0,0511361
938,500	86,8774	-0,0505171
939,200	86,9475	-0,0505226
939,900	87,0173	-0,0504231
940,600	87,0876	-0,0504555
941,300	87,1578	-0,0502091
942,000	87,2272	-0,0501961
942,700	87,2989	-0,0502913
943,400	87,3680	-0,0502386
944,100	87,4379	-0,0501355
944,800	87,5071	-0,0501330
945,500	87,5778	-0,0501354
946,200	87,6474	-0,0500820
946,900	87,7183	-0,0500693
947,600	87,7867	-0,0498491
948,300	87,8572	-0,0496801
949,000	87,9267	-0,0493669
949,700	87,9981	-0,0492621
950,400	88,0674	-0,0491251
951,100	88,1385	-0,0489737
951,800	88,2076	-0,0489570
952,500	88,2775	-0,0488963
953,200	88,3476	-0,0488114
953,900	88,4185	-0,0487555
954,600	88,4877	-0,0487176
955,300	88,5577	-0,0485611
956,000	88,6273	-0,0485352
956,700	88,6979	-0,0485100
957,400	88,7680	-0,0483737
958,100	88,8382	-0,0482734
958,800	88,9072	-0,0481364
959,500	88,9775	-0,0480476
960,200	89,0488	-0,0480711
960,900	89,1179	-0,0478654
961,600	89,1882	-0,0477191
962,300	89,2584	-0,0476869
963,000	89,3279	-0,0476852
963,700	89,3982	-0,0475942
964,400	89,4681	-0,0475422
965,100	89,5384	-0,0474590
965,800	89,6090	-0,0473751
966,500	89,6793	-0,0474337
967,200	89,7493	-0,0473137
967,900	89,8196	-0,0472699
968,600	89,8896	-0,0469695
969,300	89,9583	-0,0469071
970,000	90,0292	-0,0468124
970,700	90,1001	-0,0467657
971,400	90,1685	-0,0466376
972,100	90,2401	-0,0465232
972,800	90,3092	-0,0463835
973,500	90,3793	-0,0463757
974,200	90,4499	-0,0462711
974,900	90,5193	-0,0462568
975,600	90,5898	-0,0462252
976,300	90,6608	-0,0462543
977,000	90,7303	-0,0462020
977,700	90,8001	-0,0460842
978,400	90,8690	-0,0460000
979,100	90,9388	-0,0458026
979,800	91,0094	-0,0457222
980,500	91,0798	-0,0457072
981,200	91,1497	-0,0456940
981,900	91,2198	-0,0455808
982,600	91,2899	-0,0455129
983,300	91,3590	-0,0454431
984,000	91,4292	-0,0452845
984,700	91,4996	-0,0453460
985,400	91,5693	-0,0452638
986,100	91,6393	-0,0452160
986,800	91,7097	-0,0450560
987,500	91,7801	-0,0450061
988,200	91,8513	-0,0449754
988,900	91,9207	-0,0448690
989,600	91,9899	-0,0448501
990,300	92,0607	-0,0449039
991,000	92,1304	-0,0448245
991,700	92,2006	-0,0446938
992,400	92,2697	-0,0446738
993,100	92,3394	-0,0446475
993,800	92,4103	-0,0445652
994,500	92,4805	-0,0445488
995,200	92,5502	-0,0441346
995,900	92,6210	-0,0439655
996,600	92,6908	-0,0439260
997,300	92,7606	-0,0438532
998,000	92,8318	-0,0437976
998,700	92,9014	-0,0438045
999,400	92,9708	-0,0437279
1000,10	93,0417	-0,0437039
1000,80	93,1113	-0,0435906
1001,50	93,1806	-0,0435226
1002,20	93,2513	-0,0435304
1002,90	93,3214	-0,0435219
1003,60	93,3923	-0,0432480
1004,30	93,4616	-0,0431895
1005,00	93,5310	-0,0431023
1005,70	93,6019	-0,0431037
1006,40	93,6721	-0,0430416
1007,10	93,7418	-0,0429548
1007,80	93,8128	-0,0427874
1008,50	93,8823	-0,0428340
1009,20	93,9524	-0,0425054
1009,90	94,0229	-0,0426304
1010,60	94,0932	-0,0425742
1011,30	94,1616	-0,0424783
1012,00	94,2333	-0,0424042
1012,70	94,3019	-0,0424457
1013,40	94,3719	-0,0424670
1014,10	94,4426	-0,0423323
1014,80	94,5129	-0,0423280
1015,50	94,5823	-0,0422331
1016,20	94,6532	-0,0420557
1016,90	94,7227	-0,0419258
1017,60	94,7917	-0,0418291
1018,30	94,8627	-0,0418572
1019,00	94,9328	-0,0417370
1019,70	95,0026	-0,0416382
1020,40	95,0729	-0,0414537
1021,10	95,1431	-0,0414026
1021,80	95,2131	-0,0412694
1022,50	95,2825	-0,0412314
1023,20	95,3545	-0,0412493
1023,90	95,4232	-0,0411091
1024,60	95,4936	-0,0410902
1025,30	95,5632	-0,0409773
1026,00	95,6339	-0,0409173
1026,70	95,7045	-0,0408350
1027,40	95,7738	-0,0407630
1028,10	95,8433	-0,0406911
1028,80	95,9133	-0,0407382
1029,50	95,9833	-0,0405505
1030,20	96,0540	-0,0405324
1030,90	96,1234	-0,0403589
1031,60	96,1942	-0,0402489
1032,30	96,2646	-0,0401540
1033,00	96,3342	-0,0400924
1033,70	96,4043	-0,0401009
1034,40	96,4744	-0,0399916
1035,10	96,5435	-0,0398711
1035,80	96,6142	-0,0398155
1036,50	96,6831	-0,0397436
1037,20	96,7550	-0,0396540
1037,90	96,8245	-0,0396687
1038,60	96,8947	-0,0396347
1039,30	96,9647	-0,0394799
1040,00	97,0344	-0,0394224
1040,70	97,1035	-0,0394085
1041,40	97,1759	-0,0393542
1042,10	97,2444	-0,0393272
1042,80	97,3148	-0,0393191
1043,50	97,3845	-0,0391695
1044,20	97,4544	-0,0390928
1044,90	97,5245	-0,0389979
1045,60	97,5957	-0,0389829
1046,30	97,6649	-0,0389632
1047,00	97,7345	-0,0387880
1047,70	97,8055	-0,0387191
1048,40	97,8757	-0,0385784
1049,10	97,9449	-0,0385950
1049,80	98,0154	-0,0385152
1050,50	98,0853	-0,0385621
1051,20	98,1553	-0,0385947
1051,90	98,2260	-0,0385833
1052,60	98,2947	-0,0383622
1053,30	98,3653	-0,0382747
1054,00	98,4351	-0,0382374
1054,70	98,5061	-0,0375731
1055,40	98,5753	-0,0375483
1056,10	98,6452	-0,0375325
1056,60	98,6956	-0,0374790