File: DSC_data/V. Soto/DSC_A1_1_0-100C_6Cmin_TXT.txt
Time	Temperature	Heat Flow (Normalized)
s	Â°C	W/g
60,0000	-0,135830	-0,165489
60,7000	-0,134196	-0,165459
61,4000	-0,134343	-0,165429
62,1000	-0,132956	-0,165041
62,8000	-0,130706	-0,157896
63,5000	-0,122050	-0,127031
64,2000	-0,113041	-0,0866467
64,9000	-0,0983937	-0,0504300
65,6000	-0,0793496	-0,0108812
66,3000	-0,0531557	0,0225441
67,0000	-0,0243595	0,0530412
67,7000	0,0102150	0,0789462
68,4000	0,0497063	0,0925013
69,1000	0,0932436	0,106554
69,8000	0,139543	0,105399
70,5000	0,189205	0,105390
71,2000	0,240811	0,0984862
71,9000	0,297716	0,0920453
72,6000	0,354427	0,0823861
73,3000	0,412123	0,0722546
74,0000	0,473729	0,0565422
74,7000	0,535426	0,0450679
75,4000	0,598109	0,0324829
76,1000	0,662508	0,0231120
76,8000	0,726902	0,0121641
77,5000	0,791308	2,62950e-3
78,2000	0,857423	-9,77942e-3
78,9000	0,922057	-0,0119318
79,6000	0,990091	-0,0154672
80,3000	1,05439	-0,0162869
81,0000	1,12165	-0,0254110
81,7000	1,18986	-0,0297455
82,4000	1,25749	-0,0326476
83,1000	1,32360	-0,0348664
83,8000	1,39290	-0,0369448
84,5000	1,45976	-0,0385390
85,2000	1,52680	-0,0413998
85,9000	1,59511	-0,0411496
86,6000	1,66274	-0,0423102
87,3000	1,73199	-0,0435181
88,0000	1,79917	-0,0436691
88,7000	1,86805	-0,0438453
89,4000	1,93690	-0,0447816
90,1000	2,00500	-0,0455181
90,8000	2,07391	-0,0457963
91,5000	2,14260	-0,0460076
92,2000	2,21142	-0,0462464
92,9000	2,27951	-0,0466032
93,6000	2,34866	-0,0468034
94,3000	2,41807	-0,0472850
95,0000	2,48708	-0,0475096
95,7000	2,55545	-0,0477876
96,4000	2,62490	-0,0479270
97,1000	2,69261	-0,0482357
97,8000	2,76303	-0,0483761
98,5000	2,83159	-0,0486133
99,2000	2,90058	-0,0488565
99,9000	2,96918	-0,0489913
100,600	3,03914	-0,0491784
101,300	3,10886	-0,0494007
102,000	3,17827	-0,0496820
102,700	3,24539	-0,0499553
103,400	3,31666	-0,0500963
104,100	3,38593	-0,0503544
104,800	3,45401	-0,0505039
105,500	3,52486	-0,0506915
106,200	3,59314	-0,0509343
106,900	3,66262	-0,0511727
107,600	3,73289	-0,0513743
108,300	3,80057	-0,0515096
109,000	3,87134	-0,0515759
109,700	3,94040	-0,0517324
110,400	4,01008	-0,0519183
111,100	4,07935	-0,0520113
111,800	4,14863	-0,0521150
112,500	4,21837	-0,0523178
113,200	4,28872	-0,0524516
113,900	4,35743	-0,0525419
114,600	4,42887	-0,0524572
115,300	4,49617	-0,0527550
116,000	4,56698	-0,0529055
116,700	4,63722	-0,0529716
117,400	4,70695	-0,0530646
118,100	4,77644	-0,0531938
118,800	4,84690	-0,0532849
119,500	4,91726	-0,0533253
120,200	4,98510	-0,0533905
120,900	5,05553	-0,0534961
121,600	5,12618	-0,0536334
122,300	5,19601	-0,0537494
123,000	5,26459	-0,0538711
123,700	5,33412	-0,0540421
124,400	5,40428	-0,0540772
125,100	5,47516	-0,0541564
125,800	5,54453	-0,0541767
126,500	5,61452	-0,0543046
127,200	5,68437	-0,0543757
127,900	5,75514	-0,0544748
128,600	5,82449	-0,0546990
129,300	5,89487	-0,0545973
130,000	5,96338	-0,0547785
130,700	6,03406	-0,0548945
131,400	6,10499	-0,0548957
132,100	6,17312	-0,0549683
132,800	6,24366	-0,0552244
133,500	6,31406	-0,0552854
134,200	6,38449	-0,0553239
134,900	6,45500	-0,0553887
135,600	6,52423	-0,0554983
136,300	6,59424	-0,0555253
137,000	6,66427	-0,0555564
137,700	6,73456	-0,0555952
138,400	6,80426	-0,0555735
139,100	6,87382	-0,0556605
139,800	6,94412	-0,0557147
140,500	7,01474	-0,0558130
141,200	7,08499	-0,0559484
141,900	7,15518	-0,0558725
142,600	7,22376	-0,0560022
143,300	7,29516	-0,0560515
144,000	7,36473	-0,0561237
144,700	7,43394	-0,0561933
145,400	7,50476	-0,0562868
146,100	7,57530	-0,0563896
146,800	7,64416	-0,0564944
147,500	7,71437	-0,0566024
148,200	7,78371	-0,0566500
148,900	7,85454	-0,0567310
149,600	7,92475	-0,0567194
150,300	7,99451	-0,0569728
151,000	8,06482	-0,0569941
151,700	8,13575	-0,0570172
152,400	8,20644	-0,0569919
153,100	8,27422	-0,0570538
153,800	8,34560	-0,0571385
154,500	8,41537	-0,0570722
155,200	8,48443	-0,0570806
155,900	8,55482	-0,0571780
156,600	8,62463	-0,0572663
157,300	8,69464	-0,0573760
158,000	8,76589	-0,0574479
158,700	8,83479	-0,0574724
159,400	8,90598	-0,0575211
160,100	8,97473	-0,0575582
160,800	9,04561	-0,0576003
161,500	9,11598	-0,0577402
162,200	9,18547	-0,0578213
162,900	9,25696	-0,0579095
163,600	9,32598	-0,0579980
164,300	9,39674	-0,0579590
165,000	9,46757	-0,0580702
165,700	9,53871	-0,0582522
166,400	9,60646	-0,0579809
167,100	9,67750	-0,0581526
167,800	9,74671	-0,0582773
168,500	9,81670	-0,0582423
169,200	9,88660	-0,0581606
169,900	9,95731	-0,0583019
170,600	10,0274	-0,0584760
171,300	10,0971	-0,0585001
172,000	10,1685	-0,0586577
172,700	10,2381	-0,0587157
173,400	10,3077	-0,0587386
174,100	10,3775	-0,0587922
174,800	10,4477	-0,0586904
175,500	10,5187	-0,0587547
176,200	10,5887	-0,0588871
176,900	10,6584	-0,0589567
177,600	10,7289	-0,0589820
178,300	10,7983	-0,0589690
179,000	10,8681	-0,0590550
179,700	10,9391	-0,0593351
180,400	11,0098	-0,0593699
181,100	11,0805	-0,0596379
181,800	11,1490	-0,0598400
182,500	11,2189	-0,0598083
183,200	11,2896	-0,0598787
183,900	11,3589	-0,0599106
184,600	11,4296	-0,0600882
185,300	11,5005	-0,0602798
186,000	11,5706	-0,0602632
186,700	11,6394	-0,0602308
187,400	11,7105	-0,0602117
188,100	11,7802	-0,0603468
188,800	11,8505	-0,0604060
189,500	11,9202	-0,0605870
190,200	11,9902	-0,0606297
190,900	12,0616	-0,0607569
191,600	12,1308	-0,0608663
192,300	12,1999	-0,0608672
193,000	12,2707	-0,0608635
193,700	12,3401	-0,0607112
194,400	12,4101	-0,0610283
195,100	12,4803	-0,0610737
195,800	12,5509	-0,0611832
196,500	12,6207	-0,0612511
197,200	12,6912	-0,0612650
197,900	12,7613	-0,0613101
198,600	12,8318	-0,0614359
199,300	12,9016	-0,0615224
200,000	12,9718	-0,0616261
200,700	13,0411	-0,0616528
201,400	13,1106	-0,0618587
202,100	13,1810	-0,0618839
202,800	13,2510	-0,0619885
203,500	13,3217	-0,0620577
204,200	13,3927	-0,0621562
204,900	13,4625	-0,0621027
205,600	13,5316	-0,0622233
206,300	13,6024	-0,0621598
207,000	13,6729	-0,0622365
207,700	13,7423	-0,0623841
208,400	13,8123	-0,0625001
209,100	13,8833	-0,0626493
209,800	13,9532	-0,0628109
210,500	14,0225	-0,0628143
211,200	14,0923	-0,0629185
211,900	14,1635	-0,0630427
212,600	14,2324	-0,0631502
213,300	14,3042	-0,0632632
214,000	14,3744	-0,0633017
214,700	14,4435	-0,0634306
215,400	14,5120	-0,0636465
216,100	14,5837	-0,0637457
216,800	14,6530	-0,0637857
217,500	14,7243	-0,0639191
218,200	14,7933	-0,0639964
218,900	14,8645	-0,0641232
219,600	14,9348	-0,0642402
220,300	15,0031	-0,0643861
221,000	15,0743	-0,0643249
221,700	15,1448	-0,0643721
222,400	15,2139	-0,0645348
223,100	15,2853	-0,0645846
223,800	15,3544	-0,0646504
224,500	15,4254	-0,0648121
225,200	15,4946	-0,0649847
225,900	15,5654	-0,0649025
226,600	15,6353	-0,0649959
227,300	15,7041	-0,0651271
228,000	15,7758	-0,0651574
228,700	15,8458	-0,0651320
229,400	15,9153	-0,0652041
230,100	15,9854	-0,0652781
230,800	16,0558	-0,0653867
231,500	16,1257	-0,0654918
232,200	16,1963	-0,0655857
232,900	16,2644	-0,0656678
233,600	16,3360	-0,0657813
234,300	16,4060	-0,0658304
235,000	16,4758	-0,0659486
235,700	16,5460	-0,0660717
236,400	16,6153	-0,0659970
237,100	16,6853	-0,0661730
237,800	16,7558	-0,0662097
238,500	16,8259	-0,0662638
239,200	16,8957	-0,0663343
239,900	16,9668	-0,0665303
240,600	17,0369	-0,0667004
241,300	17,1054	-0,0669250
242,000	17,1756	-0,0671364
242,700	17,2461	-0,0671664
243,400	17,3159	-0,0670009
244,100	17,3867	-0,0671607
244,800	17,4569	-0,0672604
245,500	17,5271	-0,0674215
246,200	17,5977	-0,0676512
246,900	17,6663	-0,0676991
247,600	17,7371	-0,0678222
248,300	17,8090	-0,0678660
249,000	17,8773	-0,0680765
249,700	17,9481	-0,0681253
250,400	18,0173	-0,0682847
251,100	18,0877	-0,0684859
251,800	18,1583	-0,0686370
252,500	18,2281	-0,0687274
253,200	18,2984	-0,0688905
253,900	18,3683	-0,0689830
254,600	18,4381	-0,0690624
255,300	18,5093	-0,0691734
256,000	18,5777	-0,0691830
256,700	18,6485	-0,0694058
257,400	18,7185	-0,0695498
258,100	18,7890	-0,0697539
258,800	18,8582	-0,0698281
259,500	18,9277	-0,0699468
260,200	18,9986	-0,0700311
260,900	19,0691	-0,0701197
261,600	19,1392	-0,0701365
262,300	19,2075	-0,0701948
263,000	19,2786	-0,0703752
263,700	19,3483	-0,0704977
264,400	19,4191	-0,0705461
265,100	19,4875	-0,0706469
265,800	19,5589	-0,0707121
266,500	19,6296	-0,0708325
267,200	19,6983	-0,0709279
267,900	19,7696	-0,0710095
268,600	19,8385	-0,0711519
269,300	19,9092	-0,0712116
270,000	19,9790	-0,0714120
270,700	20,0487	-0,0715644
271,400	20,1196	-0,0716432
272,100	20,1882	-0,0717744
272,800	20,2607	-0,0719110
273,500	20,3291	-0,0721451
274,200	20,3987	-0,0722899
274,900	20,4703	-0,0724137
275,600	20,5391	-0,0726573
276,300	20,6102	-0,0726299
277,000	20,6795	-0,0727001
277,700	20,7490	-0,0728577
278,400	20,8205	-0,0729285
279,100	20,8885	-0,0730355
279,800	20,9597	-0,0731722
280,500	21,0292	-0,0731525
281,200	21,0998	-0,0732830
281,900	21,1704	-0,0733630
282,600	21,2392	-0,0734389
283,300	21,3093	-0,0735113
284,000	21,3806	-0,0736294
284,700	21,4497	-0,0737653
285,400	21,5198	-0,0739642
286,100	21,5906	-0,0740412
286,800	21,6606	-0,0740598
287,500	21,7297	-0,0741558
288,200	21,8001	-0,0743536
288,900	21,8707	-0,0744309
289,600	21,9406	-0,0745742
290,300	22,0110	-0,0747541
291,000	22,0793	-0,0747645
291,700	22,1504	-0,0748143
292,400	22,2199	-0,0749993
293,100	22,2897	-0,0751979
293,800	22,3603	-0,0753563
294,500	22,4296	-0,0753989
295,200	22,5013	-0,0755203
295,900	22,5710	-0,0756114
296,600	22,6402	-0,0757807
297,300	22,7106	-0,0759577
298,000	22,7819	-0,0760263
298,700	22,8511	-0,0761761
299,400	22,9211	-0,0763389
300,100	22,9915	-0,0765117
300,800	23,0601	-0,0767541
301,500	23,1312	-0,0768979
302,200	23,2011	-0,0772188
302,900	23,2718	-0,0773811
303,600	23,3419	-0,0774267
304,300	23,4102	-0,0775746
305,000	23,4815	-0,0777326
305,700	23,5507	-0,0777304
306,400	23,6215	-0,0778930
307,100	23,6916	-0,0779879
307,800	23,7606	-0,0781362
308,500	23,8309	-0,0782036
309,200	23,9011	-0,0782386
309,900	23,9710	-0,0783443
310,600	24,0406	-0,0785777
311,300	24,1104	-0,0788816
312,000	24,1824	-0,0789522
312,700	24,2517	-0,0792965
313,400	24,3211	-0,0794047
314,100	24,3911	-0,0795867
314,800	24,4621	-0,0797676
315,500	24,5324	-0,0799923
316,200	24,6018	-0,0802429
316,900	24,6714	-0,0804548
317,600	24,7418	-0,0804761
318,300	24,8121	-0,0805458
319,000	24,8817	-0,0805913
319,700	24,9527	-0,0807083
320,400	25,0219	-0,0808368
321,100	25,0922	-0,0809522
321,800	25,1632	-0,0811715
322,500	25,2336	-0,0812906
323,200	25,3022	-0,0814493
323,900	25,3713	-0,0815430
324,600	25,4421	-0,0817132
325,300	25,5127	-0,0818616
326,000	25,5832	-0,0820297
326,700	25,6527	-0,0822224
327,400	25,7231	-0,0823310
328,100	25,7921	-0,0826075
328,800	25,8635	-0,0827233
329,500	25,9323	-0,0829318
330,200	26,0018	-0,0830356
330,900	26,0725	-0,0831557
331,600	26,1420	-0,0832553
332,300	26,2121	-0,0833505
333,000	26,2833	-0,0835296
333,700	26,3521	-0,0836513
334,400	26,4230	-0,0838004
335,100	26,4929	-0,0839713
335,800	26,5632	-0,0842073
336,500	26,6339	-0,0843879
337,200	26,7046	-0,0845369
337,900	26,7737	-0,0847733
338,600	26,8434	-0,0848523
339,300	26,9139	-0,0852056
340,000	26,9843	-0,0853472
340,700	27,0532	-0,0855891
341,400	27,1234	-0,0856996
342,100	27,1935	-0,0859042
342,800	27,2642	-0,0859460
343,500	27,3342	-0,0860694
344,200	27,4026	-0,0862649
344,900	27,4733	-0,0864171
345,600	27,5440	-0,0867343
346,300	27,6131	-0,0870648
347,000	27,6842	-0,0871442
347,700	27,7528	-0,0873026
348,400	27,8243	-0,0875272
349,100	27,8938	-0,0875920
349,800	27,9640	-0,0879097
350,500	28,0342	-0,0880006
351,200	28,1044	-0,0881704
351,900	28,1736	-0,0883532
352,600	28,2459	-0,0885077
353,300	28,3143	-0,0886248
354,000	28,3852	-0,0888264
354,700	28,4546	-0,0890581
355,400	28,5244	-0,0891838
356,100	28,5941	-0,0893078
356,800	28,6646	-0,0895589
357,500	28,7339	-0,0897491
358,200	28,8053	-0,0899603
358,900	28,8742	-0,0901740
359,600	28,9439	-0,0903302
360,300	29,0145	-0,0904423
361,000	29,0840	-0,0906384
361,700	29,1549	-0,0907797
362,400	29,2244	-0,0909679
363,100	29,2951	-0,0911040
363,800	29,3649	-0,0912819
364,500	29,4360	-0,0917663
365,200	29,5048	-0,0919621
365,900	29,5755	-0,0921578
366,600	29,6438	-0,0923701
367,300	29,7150	-0,0926357
368,000	29,7860	-0,0927959
368,700	29,8559	-0,0929536
369,400	29,9252	-0,0930027
370,100	29,9951	-0,0930666
370,800	30,0658	-0,0934990
371,500	30,1354	-0,0936651
372,200	30,2060	-0,0938906
372,900	30,2745	-0,0940577
373,600	30,3462	-0,0942113
374,300	30,4154	-0,0944312
375,000	30,4854	-0,0945293
375,700	30,5555	-0,0947562
376,400	30,6251	-0,0948636
377,100	30,6955	-0,0949668
377,800	30,7658	-0,0952308
378,500	30,8348	-0,0953268
379,200	30,9064	-0,0955889
379,900	30,9772	-0,0957288
380,600	31,0461	-0,0959619
381,300	31,1159	-0,0961801
382,000	31,1862	-0,0963787
382,700	31,2551	-0,0972579
383,400	31,3254	-0,0973628
384,100	31,3966	-0,0975731
384,800	31,4657	-0,0975894
385,500	31,5348	-0,0978537
386,200	31,6048	-0,0979912
386,900	31,6753	-0,0982077
387,600	31,7455	-0,0984138
388,300	31,8160	-0,0985333
389,000	31,8851	-0,0987067
389,700	31,9557	-0,0991283
390,400	32,0252	-0,0991777
391,100	32,0947	-0,0994116
391,800	32,1648	-0,0995557
392,500	32,2346	-0,0997502
393,200	32,3050	-0,0999431
393,900	32,3738	-0,100126
394,600	32,4453	-0,100299
395,300	32,5151	-0,100517
396,000	32,5863	-0,100651
396,700	32,6556	-0,100662
397,400	32,7262	-0,100859
398,100	32,7958	-0,101056
398,800	32,8663	-0,101242
399,500	32,9359	-0,101458
400,200	33,0048	-0,101766
400,900	33,0762	-0,102094
401,600	33,1467	-0,102276
402,300	33,2165	-0,102710
403,000	33,2859	-0,102931
403,700	33,3554	-0,103165
404,400	33,4263	-0,103359
405,100	33,4966	-0,103479
405,800	33,5657	-0,103541
406,500	33,6367	-0,103723
407,200	33,7067	-0,103827
407,900	33,7766	-0,104333
408,600	33,8457	-0,104511
409,300	33,9169	-0,104756
410,000	33,9875	-0,104951
410,700	34,0566	-0,105328
411,400	34,1264	-0,105484
412,100	34,1963	-0,105616
412,800	34,2667	-0,105929
413,500	34,3362	-0,106200
414,200	34,4059	-0,106313
414,900	34,4775	-0,106593
415,600	34,5463	-0,106774
416,300	34,6167	-0,106985
417,000	34,6861	-0,107263
417,700	34,7567	-0,107510
418,400	34,8265	-0,107608
419,100	34,8972	-0,107882
419,800	34,9664	-0,108102
420,500	35,0363	-0,108408
421,200	35,1058	-0,108481
421,900	35,1757	-0,108845
422,600	35,2462	-0,109009
423,300	35,3172	-0,109203
424,000	35,3861	-0,109361
424,700	35,4572	-0,109661
425,400	35,5271	-0,109914
426,100	35,5967	-0,110168
426,800	35,6661	-0,110386
427,500	35,7362	-0,110523
428,200	35,8066	-0,110777
428,900	35,8765	-0,111094
429,600	35,9474	-0,111243
430,300	36,0162	-0,111415
431,000	36,0866	-0,111708
431,700	36,1574	-0,111865
432,400	36,2264	-0,112175
433,100	36,2974	-0,112405
433,800	36,3679	-0,112663
434,500	36,4368	-0,112833
435,200	36,5076	-0,113160
435,900	36,5777	-0,113477
436,600	36,6480	-0,113738
437,300	36,7165	-0,113958
438,000	36,7874	-0,114157
438,700	36,8569	-0,114388
439,400	36,9277	-0,114585
440,100	36,9967	-0,115290
440,800	37,0672	-0,115525
441,500	37,1366	-0,115699
442,200	37,2069	-0,115873
442,900	37,2762	-0,116065
443,600	37,3472	-0,116290
444,300	37,4171	-0,116474
445,000	37,4879	-0,117194
445,700	37,5574	-0,117353
446,400	37,6272	-0,117611
447,100	37,6971	-0,117821
447,800	37,7666	-0,118066
448,500	37,8378	-0,118181
449,200	37,9077	-0,118310
449,900	37,9777	-0,118544
450,600	38,0476	-0,119022
451,300	38,1185	-0,119389
452,000	38,1873	-0,119590
452,700	38,2576	-0,119893
453,400	38,3279	-0,120076
454,100	38,3973	-0,120296
454,800	38,4678	-0,120500
455,500	38,5370	-0,120724
456,200	38,6076	-0,120992
456,900	38,6777	-0,121105
457,600	38,7457	-0,121233
458,300	38,8171	-0,121610
459,000	38,8885	-0,121809
459,700	38,9574	-0,122154
460,400	39,0280	-0,122163
461,100	39,0975	-0,122427
461,800	39,1674	-0,122668
462,500	39,2373	-0,122930
463,200	39,3075	-0,123146
463,900	39,3773	-0,123498
464,600	39,4479	-0,123935
465,300	39,5169	-0,124176
466,000	39,5868	-0,124420
466,700	39,6569	-0,124766
467,400	39,7276	-0,124930
468,100	39,7978	-0,125102
468,800	39,8673	-0,125290
469,500	39,9375	-0,125579
470,200	40,0085	-0,125905
470,900	40,0773	-0,126042
471,600	40,1477	-0,126501
472,300	40,2179	-0,126791
473,000	40,2881	-0,127096
473,700	40,3574	-0,127338
474,400	40,4275	-0,127538
475,100	40,4985	-0,127841
475,800	40,5679	-0,128001
476,500	40,6386	-0,128241
477,200	40,7086	-0,128767
477,900	40,7783	-0,128936
478,600	40,8479	-0,129184
479,300	40,9184	-0,129428
480,000	40,9882	-0,129604
480,700	41,0586	-0,129928
481,400	41,1275	-0,130231
482,100	41,1985	-0,130482
482,800	41,2676	-0,130748
483,500	41,3387	-0,131117
484,200	41,4075	-0,131319
484,900	41,4767	-0,131577
485,600	41,5481	-0,131869
486,300	41,6186	-0,132128
487,000	41,6875	-0,132254
487,700	41,7582	-0,132736
488,400	41,8283	-0,132898
489,100	41,8993	-0,133081
489,800	41,9685	-0,133392
490,500	42,0389	-0,133811
491,200	42,1084	-0,134302
491,900	42,1792	-0,134555
492,600	42,2481	-0,134746
493,300	42,3175	-0,134982
494,000	42,3875	-0,135220
494,700	42,4574	-0,135584
495,400	42,5278	-0,135756
496,100	42,5983	-0,135851
496,800	42,6679	-0,136084
497,500	42,7372	-0,136247
498,200	42,8073	-0,136417
498,900	42,8777	-0,136696
499,600	42,9485	-0,137375
500,300	43,0191	-0,137603
501,000	43,0883	-0,137941
501,700	43,1575	-0,138133
502,400	43,2283	-0,138417
503,100	43,2984	-0,138723
503,800	43,3688	-0,139002
504,500	43,4386	-0,139194
505,200	43,5082	-0,139363
505,900	43,5786	-0,139550
506,600	43,6481	-0,139987
507,300	43,7189	-0,140288
508,000	43,7878	-0,140512
508,700	43,8587	-0,140854
509,400	43,9286	-0,141117
510,100	43,9980	-0,141423
510,800	44,0685	-0,141533
511,500	44,1386	-0,141744
512,200	44,2079	-0,141896
512,900	44,2775	-0,142169
513,600	44,3470	-0,142411
514,300	44,4186	-0,142644
515,000	44,4888	-0,142834
515,700	44,5589	-0,143078
516,400	44,6275	-0,143343
517,100	44,6989	-0,143586
517,800	44,7677	-0,143907
518,500	44,8379	-0,144206
519,200	44,9077	-0,144410
519,900	44,9790	-0,144632
520,600	45,0490	-0,145018
521,300	45,1187	-0,145269
522,000	45,1888	-0,145557
522,700	45,2578	-0,145803
523,400	45,3286	-0,146094
524,100	45,3990	-0,146331
524,800	45,4687	-0,146607
525,500	45,5386	-0,146847
526,200	45,6085	-0,147039
526,900	45,6794	-0,147277
527,600	45,7478	-0,147409
528,300	45,8193	-0,147623
529,000	45,8888	-0,148033
529,700	45,9583	-0,148482
530,400	46,0290	-0,148858
531,100	46,0983	-0,149036
531,800	46,1686	-0,149235
532,500	46,2394	-0,149536
533,200	46,3091	-0,149778
533,900	46,3789	-0,150030
534,600	46,4492	-0,150411
535,300	46,5193	-0,150662
536,000	46,5887	-0,150787
536,700	46,6597	-0,151264
537,400	46,7291	-0,151539
538,100	46,7984	-0,151787
538,800	46,8684	-0,151965
539,500	46,9395	-0,152270
540,200	47,0095	-0,152220
540,900	47,0781	-0,152492
541,600	47,1491	-0,152620
542,300	47,2181	-0,152849
543,000	47,2879	-0,153298
543,700	47,3592	-0,153542
544,400	47,4288	-0,153770
545,100	47,4987	-0,153905
545,800	47,5697	-0,154062
546,500	47,6399	-0,154275
547,200	47,7091	-0,154450
547,900	47,7803	-0,154661
548,600	47,8500	-0,154820
549,300	47,9195	-0,155148
550,000	47,9893	-0,155535
550,700	48,0593	-0,155819
551,400	48,1293	-0,156127
552,100	48,1990	-0,156294
552,800	48,2694	-0,156541
553,500	48,3387	-0,156643
554,200	48,4083	-0,156775
554,900	48,4764	-0,156939
555,600	48,5471	-0,157062
556,300	48,6173	-0,157226
557,000	48,6886	-0,157380
557,700	48,7590	-0,157407
558,400	48,8304	-0,157728
559,100	48,8996	-0,157877
559,800	48,9705	-0,157989
560,500	49,0402	-0,158615
561,200	49,1109	-0,159202
561,900	49,1812	-0,159448
562,600	49,2511	-0,159744
563,300	49,3191	-0,159997
564,000	49,3891	-0,160284
564,700	49,4589	-0,160473
565,400	49,5301	-0,160565
566,100	49,6000	-0,160641
566,800	49,6691	-0,160786
567,500	49,7390	-0,160848
568,200	49,8089	-0,160967
568,900	49,8787	-0,161132
569,600	49,9489	-0,161282
570,300	50,0201	-0,161458
571,000	50,0891	-0,161488
571,700	50,1594	-0,161547
572,400	50,2300	-0,161713
573,100	50,3002	-0,161926
573,800	50,3714	-0,162120
574,500	50,4409	-0,162385
575,200	50,5112	-0,162553
575,900	50,5809	-0,162811
576,600	50,6512	-0,163111
577,300	50,7198	-0,163425
578,000	50,7899	-0,163698
578,700	50,8605	-0,163904
579,400	50,9303	-0,164086
580,100	50,9984	-0,164151
580,800	51,0698	-0,164342
581,500	51,1403	-0,164505
582,200	51,2103	-0,164662
582,900	51,2803	-0,164783
583,600	51,3507	-0,164826
584,300	51,4204	-0,164912
585,000	51,4901	-0,165050
585,700	51,5599	-0,165365
586,400	51,6309	-0,165601
587,100	51,7008	-0,165792
587,800	51,7712	-0,165838
588,500	51,8406	-0,165990
589,200	51,9107	-0,166159
589,900	51,9799	-0,166348
590,600	52,0498	-0,166548
591,300	52,1208	-0,166678
592,000	52,1909	-0,166855
592,700	52,2617	-0,166861
593,400	52,3305	-0,166935
594,100	52,4008	-0,167080
594,800	52,4705	-0,167160
595,500	52,5405	-0,167711
596,200	52,6111	-0,167935
596,900	52,6800	-0,168016
597,600	52,7507	-0,168115
598,300	52,8210	-0,168187
599,000	52,8906	-0,168323
599,700	52,9615	-0,168432
600,400	53,0308	-0,168592
601,100	53,1012	-0,168686
601,800	53,1720	-0,168761
602,500	53,2411	-0,169104
603,200	53,3119	-0,169284
603,900	53,3815	-0,169384
604,600	53,4507	-0,169473
605,300	53,5221	-0,169732
606,000	53,5923	-0,169910
606,700	53,6615	-0,169912
607,400	53,7311	-0,170054
608,100	53,8025	-0,170154
608,800	53,8708	-0,170343
609,500	53,9411	-0,170531
610,200	54,0111	-0,170548
610,900	54,0815	-0,170740
611,600	54,1511	-0,170804
612,300	54,2209	-0,170830
613,000	54,2918	-0,170866
613,700	54,3614	-0,170993
614,400	54,4308	-0,170967
615,100	54,5011	-0,171042
615,800	54,5719	-0,171215
616,500	54,6430	-0,171284
617,200	54,7120	-0,171375
617,900	54,7812	-0,171490
618,600	54,8522	-0,171636
619,300	54,9212	-0,171817
620,000	54,9926	-0,171971
620,700	55,0615	-0,172055
621,400	55,1321	-0,172230
622,100	55,2015	-0,172252
622,800	55,2719	-0,172342
623,500	55,3424	-0,172551
624,200	55,4125	-0,172669
624,900	55,4825	-0,172731
625,600	55,5523	-0,172793
626,300	55,6216	-0,172972
627,000	55,6930	-0,173075
627,700	55,7615	-0,172964
628,400	55,8316	-0,173052
629,100	55,9040	-0,173100
629,800	55,9727	-0,173242
630,500	56,0422	-0,173109
631,200	56,1125	-0,173329
631,900	56,1835	-0,173468
632,600	56,2525	-0,173544
633,300	56,3226	-0,173637
634,000	56,3921	-0,173670
634,700	56,4625	-0,173712
635,400	56,5334	-0,173905
636,100	56,6027	-0,173995
636,800	56,6729	-0,174039
637,500	56,7446	-0,174087
638,200	56,8115	-0,174204
638,900	56,8833	-0,174204
639,600	56,9538	-0,174219
640,300	57,0237	-0,174348
641,000	57,0931	-0,174365
641,700	57,1636	-0,174439
642,400	57,2342	-0,174514
643,100	57,3031	-0,174481
643,800	57,3727	-0,174632
644,500	57,4430	-0,174675
645,200	57,5134	-0,174804
645,900	57,5843	-0,174741
646,600	57,6541	-0,174774
647,300	57,7243	-0,174889
648,000	57,7939	-0,174799
648,700	57,8643	-0,174892
649,400	57,9349	-0,175005
650,100	58,0043	-0,175080
650,800	58,0734	-0,175071
651,500	58,1438	-0,175126
652,200	58,2150	-0,175146
652,900	58,2838	-0,175194
653,600	58,3555	-0,175134
654,300	58,4246	-0,175158
655,000	58,4945	-0,175200
655,700	58,5646	-0,175273
656,400	58,6336	-0,175316
657,100	58,7056	-0,175457
657,800	58,7754	-0,175636
658,500	58,8444	-0,175529
659,200	58,9156	-0,175579
659,900	58,9851	-0,175640
660,600	59,0550	-0,175719
661,300	59,1254	-0,175812
662,000	59,1944	-0,175919
662,700	59,2647	-0,176028
663,400	59,3344	-0,175966
664,100	59,4045	-0,176003
664,800	59,4745	-0,176020
665,500	59,5439	-0,175932
666,200	59,6152	-0,175833
666,900	59,6853	-0,175806
667,600	59,7554	-0,175825
668,300	59,8257	-0,175882
669,000	59,8948	-0,175897
669,700	59,9652	-0,175870
670,400	60,0348	-0,175882
671,100	60,1052	-0,175984
671,800	60,1755	-0,175962
672,500	60,2453	-0,175953
673,200	60,3166	-0,175941
673,900	60,3866	-0,175962
674,600	60,4559	-0,175962
675,300	60,5263	-0,175882
676,000	60,5961	-0,175931
676,700	60,6662	-0,176030
677,400	60,7363	-0,176076
678,100	60,8070	-0,176019
678,800	60,8766	-0,175965
679,500	60,9475	-0,176016
680,200	61,0175	-0,176008
680,900	61,0875	-0,176059
681,600	61,1571	-0,176141
682,300	61,2276	-0,176169
683,000	61,2961	-0,176224
683,700	61,3679	-0,176254
684,400	61,4372	-0,176160
685,100	61,5080	-0,176167
685,800	61,5776	-0,176135
686,500	61,6475	-0,176128
687,200	61,7175	-0,176089
687,900	61,7874	-0,175994
688,600	61,8575	-0,175951
689,300	61,9279	-0,175966
690,000	61,9973	-0,175862
690,700	62,0679	-0,175970
691,400	62,1374	-0,175878
692,100	62,2087	-0,175736
692,800	62,2779	-0,175926
693,500	62,3475	-0,175884
694,200	62,4186	-0,175875
694,900	62,4879	-0,175875
695,600	62,5578	-0,175851
696,300	62,6277	-0,175803
697,000	62,6979	-0,175673
697,700	62,7677	-0,175609
698,400	62,8370	-0,175549
699,100	62,9079	-0,175515
699,800	62,9781	-0,175495
700,500	63,0474	-0,175411
701,200	63,1179	-0,175468
701,900	63,1890	-0,175423
702,600	63,2579	-0,175336
703,300	63,3283	-0,175352
704,000	63,3977	-0,175329
704,700	63,4686	-0,175168
705,400	63,5387	-0,175103
706,100	63,6090	-0,175033
706,800	63,6785	-0,174891
707,500	63,7489	-0,174910
708,200	63,8198	-0,174900
708,900	63,8884	-0,174884
709,600	63,9594	-0,174887
710,300	64,0285	-0,174796
711,000	64,0995	-0,174906
711,700	64,1696	-0,174754
712,400	64,2394	-0,174776
713,100	64,3100	-0,174445
713,800	64,3796	-0,174261
714,500	64,4503	-0,174309
715,200	64,5197	-0,174276
715,900	64,5903	-0,174304
716,600	64,6600	-0,174287
717,300	64,7303	-0,174270
718,000	64,8002	-0,174154
718,700	64,8698	-0,174143
719,400	64,9401	-0,174008
720,100	65,0105	-0,173954
720,800	65,0802	-0,173984
721,500	65,1502	-0,173925
722,200	65,2201	-0,173845
722,900	65,2908	-0,173769
723,600	65,3607	-0,173733
724,300	65,4311	-0,173640
725,000	65,5009	-0,173478
725,700	65,5705	-0,173381
726,400	65,6402	-0,173314
727,100	65,7103	-0,173180
727,800	65,7800	-0,173212
728,500	65,8506	-0,173256
729,200	65,9209	-0,173167
729,900	65,9910	-0,173069
730,600	66,0604	-0,172814
731,300	66,1310	-0,172665
732,000	66,2005	-0,172614
732,700	66,2709	-0,172668
733,400	66,3408	-0,172371
734,100	66,4115	-0,171583
734,800	66,4809	-0,160447
735,500	66,5515	-0,161052
736,200	66,6220	-0,161406
736,900	66,6910	-0,161790
737,600	66,7623	-0,162267
738,300	66,8312	-0,162717
739,000	66,9016	-0,163031
739,700	66,9719	-0,163219
740,400	67,0414	-0,163507
741,100	67,1119	-0,163664
741,800	67,1823	-0,163864
742,500	67,2523	-0,164045
743,200	67,3227	-0,164206
743,900	67,3921	-0,164499
744,600	67,4624	-0,164774
745,300	67,5327	-0,165019
746,000	67,6021	-0,165163
746,700	67,6719	-0,165236
747,400	67,7423	-0,165442
748,100	67,8128	-0,165476
748,800	67,8833	-0,165801
749,500	67,9532	-0,165879
750,200	68,0225	-0,165931
750,900	68,0927	-0,165990
751,600	68,1626	-0,166011
752,300	68,2329	-0,166138
753,000	68,3033	-0,166170
753,700	68,3734	-0,166135
754,400	68,4434	-0,166118
755,100	68,5136	-0,166207
755,800	68,5838	-0,166303
756,500	68,6529	-0,166287
757,200	68,7226	-0,166120
757,900	68,7929	-0,166098
758,600	68,8632	-0,166049
759,300	68,9334	-0,165862
760,000	69,0033	-0,165836
760,700	69,0733	-0,165751
761,400	69,1442	-0,165706
762,100	69,2141	-0,165539
762,800	69,2841	-0,165587
763,500	69,3534	-0,165553
764,200	69,4246	-0,165562
764,900	69,4948	-0,165553
765,600	69,5640	-0,165331
766,300	69,6354	-0,165295
767,000	69,7049	-0,165230
767,700	69,7753	-0,165168
768,400	69,8449	-0,165118
769,100	69,9152	-0,165079
769,800	69,9859	-0,164982
770,500	70,0542	-0,164807
771,200	70,1254	-0,164708
771,900	70,1953	-0,164609
772,600	70,2650	-0,164505
773,300	70,3356	-0,164353
774,000	70,4060	-0,164279
774,700	70,4762	-0,164252
775,400	70,5456	-0,164067
776,100	70,6153	-0,163953
776,800	70,6866	-0,163902
777,500	70,7568	-0,163777
778,200	70,8262	-0,163629
778,900	70,8962	-0,163501
779,600	70,9659	-0,163433
780,300	71,0363	-0,163315
781,000	71,1053	-0,163212
781,700	71,1759	-0,162964
782,400	71,2469	-0,162662
783,100	71,3155	-0,162418
783,800	71,3872	-0,162278
784,500	71,4565	-0,162202
785,200	71,5260	-0,162108
785,900	71,5958	-0,161964
786,600	71,6672	-0,161907
787,300	71,7370	-0,161785
788,000	71,8069	-0,161680
788,700	71,8765	-0,161471
789,400	71,9470	-0,161344
790,100	72,0171	-0,161230
790,800	72,0871	-0,161037
791,500	72,1564	-0,160910
792,200	72,2267	-0,160920
792,900	72,2976	-0,160748
793,600	72,3682	-0,160614
794,300	72,4382	-0,160407
795,000	72,5085	-0,160249
795,700	72,5782	-0,160168
796,400	72,6483	-0,159944
797,100	72,7173	-0,159799
797,800	72,7874	-0,159719
798,500	72,8577	-0,159519
799,200	72,9270	-0,159399
799,900	72,9976	-0,159274
800,600	73,0686	-0,158998
801,300	73,1384	-0,158798
802,000	73,2084	-0,158614
802,700	73,2789	-0,158487
803,400	73,3491	-0,158356
804,100	73,4185	-0,158131
804,800	73,4889	-0,157947
805,500	73,5583	-0,157834
806,200	73,6282	-0,157813
806,900	73,6980	-0,157585
807,600	73,7690	-0,157371
808,300	73,8384	-0,157209
809,000	73,9099	-0,157133
809,700	73,9794	-0,156882
810,400	74,0492	-0,156782
811,100	74,1193	-0,156647
811,800	74,1898	-0,156438
812,500	74,2598	-0,156290
813,200	74,3292	-0,156123
813,900	74,3999	-0,156000
814,600	74,4693	-0,155894
815,300	74,5393	-0,155751
816,000	74,6100	-0,155385
816,700	74,6800	-0,154720
817,400	74,7497	-0,154646
818,100	74,8196	-0,154471
818,800	74,8892	-0,154393
819,500	74,9606	-0,154292
820,200	75,0298	-0,154070
820,900	75,1015	-0,153972
821,600	75,1706	-0,153869
822,300	75,2396	-0,153743
823,000	75,3111	-0,153693
823,700	75,3801	-0,153474
824,400	75,4509	-0,153261
825,100	75,5205	-0,153314
825,800	75,5903	-0,153080
826,500	75,6607	-0,152890
827,200	75,7311	-0,152621
827,900	75,8003	-0,152524
828,600	75,8711	-0,152375
829,300	75,9405	-0,152146
830,000	76,0110	-0,151943
830,700	76,0813	-0,151712
831,400	76,1509	-0,151449
832,100	76,2208	-0,151247
832,800	76,2916	-0,151012
833,500	76,3620	-0,150920
834,200	76,4321	-0,150633
834,900	76,5014	-0,150397
835,600	76,5722	-0,150166
836,300	76,6424	-0,150044
837,000	76,7124	-0,149875
837,700	76,7821	-0,149697
838,400	76,8520	-0,149437
839,100	76,9221	-0,149346
839,800	76,9916	-0,149205
840,500	77,0627	-0,149036
841,200	77,1320	-0,148876
841,900	77,2025	-0,148637
842,600	77,2717	-0,148448
843,300	77,3431	-0,148258
844,000	77,4123	-0,148031
844,700	77,4819	-0,147747
845,400	77,5537	-0,147551
846,100	77,6224	-0,147376
846,800	77,6938	-0,147314
847,500	77,7636	-0,147082
848,200	77,8354	-0,146884
848,900	77,9037	-0,146777
849,600	77,9743	-0,146578
850,300	78,0442	-0,146381
851,000	78,1137	-0,146139
851,700	78,1844	-0,146048
852,400	78,2540	-0,146019
853,100	78,3252	-0,145696
853,800	78,3953	-0,145358
854,500	78,4639	-0,145133
855,200	78,5338	-0,145052
855,900	78,6050	-0,144786
856,600	78,6754	-0,144569
857,300	78,7452	-0,144342
858,000	78,8146	-0,144059
858,700	78,8857	-0,143868
859,400	78,9547	-0,143788
860,100	79,0250	-0,143452
860,800	79,0950	-0,143278
861,500	79,1653	-0,142924
862,200	79,2359	-0,142773
862,900	79,3062	-0,142552
863,600	79,3763	-0,142317
864,300	79,4462	-0,142148
865,000	79,5161	-0,141968
865,700	79,5857	-0,141756
866,400	79,6551	-0,141413
867,100	79,7261	-0,141226
867,800	79,7959	-0,140996
868,500	79,8649	-0,140787
869,200	79,9357	-0,140553
869,900	80,0069	-0,140314
870,600	80,0761	-0,140032
871,300	80,1458	-0,139872
872,000	80,2156	-0,139556
872,700	80,2877	-0,139067
873,400	80,3565	-0,138826
874,100	80,4258	-0,138284
874,800	80,4968	-0,138085
875,500	80,5671	-0,138085
876,200	80,6372	-0,137825
876,900	80,7075	-0,137644
877,600	80,7780	-0,137524
878,300	80,8472	-0,137501
879,000	80,9174	-0,137349
879,700	80,9870	-0,137118
880,400	81,0573	-0,136864
881,100	81,1269	-0,136659
881,800	81,1975	-0,136440
882,500	81,2675	-0,136255
883,200	81,3372	-0,135995
883,900	81,4062	-0,135776
884,600	81,4767	-0,135531
885,300	81,5478	-0,135215
886,000	81,6165	-0,134989
886,700	81,6873	-0,134507
887,400	81,7572	-0,134358
888,100	81,8289	-0,134168
888,800	81,8978	-0,134029
889,500	81,9687	-0,133943
890,200	82,0386	-0,133704
890,900	82,1092	-0,133493
891,600	82,1784	-0,133327
892,300	82,2488	-0,133259
893,000	82,3188	-0,133151
893,700	82,3886	-0,132893
894,400	82,4585	-0,132814
895,100	82,5290	-0,132601
895,800	82,5989	-0,132456
896,500	82,6686	-0,132237
897,200	82,7389	-0,132115
897,900	82,8093	-0,131933
898,600	82,8788	-0,131601
899,300	82,9485	-0,131355
900,000	83,0176	-0,131125
900,700	83,0884	-0,130928
901,400	83,1594	-0,130718
902,100	83,2284	-0,130466
902,800	83,2988	-0,130289
903,500	83,3696	-0,130124
904,200	83,4397	-0,129849
904,900	83,5100	-0,129643
905,600	83,5797	-0,129317
906,300	83,6501	-0,129097
907,000	83,7201	-0,128888
907,700	83,7894	-0,128776
908,400	83,8601	-0,128415
909,100	83,9308	-0,128267
909,800	83,9995	-0,128121
910,500	84,0695	-0,127827
911,200	84,1415	-0,127710
911,900	84,2100	-0,127489
912,600	84,2817	-0,127519
913,300	84,3507	-0,127270
914,000	84,4212	-0,127056
914,700	84,4905	-0,126876
915,400	84,5609	-0,126664
916,100	84,6299	-0,126457
916,800	84,7012	-0,126269
917,500	84,7709	-0,126022
918,200	84,8411	-0,125782
918,900	84,9118	-0,125584
919,600	84,9808	-0,125409
920,300	85,0506	-0,125138
921,000	85,1210	-0,124885
921,700	85,1919	-0,124693
922,400	85,2620	-0,124400
923,100	85,3313	-0,124110
923,800	85,4019	-0,123857
924,500	85,4725	-0,123688
925,200	85,5420	-0,123535
925,900	85,6126	-0,123216
926,600	85,6822	-0,122958
927,300	85,7522	-0,122836
928,000	85,8231	-0,122601
928,700	85,8917	-0,122381
929,400	85,9618	-0,122131
930,100	86,0328	-0,121945
930,800	86,1018	-0,121734
931,500	86,1724	-0,121508
932,200	86,2421	-0,121263
932,900	86,3126	-0,120991
933,600	86,3820	-0,120668
934,300	86,4531	-0,120518
935,000	86,5234	-0,120301
935,700	86,5945	-0,120123
936,400	86,6637	-0,119878
937,100	86,7346	-0,119671
937,800	86,8036	-0,119394
938,500	86,8741	-0,119328
939,200	86,9454	-0,119078
939,900	87,0143	-0,118899
940,600	87,0859	-0,118853
941,300	87,1565	-0,118672
942,000	87,2262	-0,118529
942,700	87,2946	-0,118232
943,400	87,3654	-0,118000
944,100	87,4348	-0,117930
944,800	87,5049	-0,117715
945,500	87,5741	-0,117477
946,200	87,6449	-0,117311
946,900	87,7142	-0,117047
947,600	87,7853	-0,116640
948,300	87,8558	-0,116359
949,000	87,9257	-0,115971
949,700	87,9951	-0,115705
950,400	88,0647	-0,115476
951,100	88,1353	-0,115370
951,800	88,2044	-0,115116
952,500	88,2746	-0,114932
953,200	88,3456	-0,114700
953,900	88,4164	-0,114550
954,600	88,4858	-0,114144
955,300	88,5551	-0,114007
956,000	88,6255	-0,113873
956,700	88,6966	-0,113593
957,400	88,7655	-0,113477
958,100	88,8359	-0,113138
958,800	88,9064	-0,113027
959,500	88,9764	-0,112751
960,200	89,0458	-0,112571
960,900	89,1176	-0,112343
961,600	89,1868	-0,112139
962,300	89,2576	-0,111908
963,000	89,3268	-0,111687
963,700	89,3961	-0,111531
964,400	89,4677	-0,111455
965,100	89,5376	-0,111132
965,800	89,6064	-0,110820
966,500	89,6785	-0,110628
967,200	89,7482	-0,110375
967,900	89,8178	-0,110134
968,600	89,8880	-0,110017
969,300	89,9588	-0,109973
970,000	90,0286	-0,109853
970,700	90,0976	-0,109570
971,400	90,1674	-0,109304
972,100	90,2372	-0,109054
972,800	90,3070	-0,108876
973,500	90,3771	-0,108611
974,200	90,4480	-0,108216
974,900	90,5188	-0,107970
975,600	90,5885	-0,107791
976,300	90,6583	-0,107584
977,000	90,7285	-0,107367
977,700	90,7981	-0,107159
978,400	90,8687	-0,107019
979,100	90,9377	-0,106397
979,800	91,0075	-0,106274
980,500	91,0796	-0,106086
981,200	91,1490	-0,105820
981,900	91,2188	-0,105610
982,600	91,2885	-0,105203
983,300	91,3583	-0,104879
984,000	91,4291	-0,104905
984,700	91,4986	-0,104660
985,400	91,5687	-0,104361
986,100	91,6398	-0,104122
986,800	91,7094	-0,103938
987,500	91,7802	-0,103727
988,200	91,8495	-0,103444
988,900	91,9190	-0,103315
989,600	91,9890	-0,103124
990,300	92,0595	-0,102942
991,000	92,1300	-0,102729
991,700	92,2005	-0,102493
992,400	92,2698	-0,102331
993,100	92,3401	-0,102190
993,800	92,4095	-0,101914
994,500	92,4799	-0,101699
995,200	92,5502	-0,101540
995,900	92,6193	-0,101323
996,600	92,6895	-0,101066
997,300	92,7599	-0,100885
998,000	92,8306	-0,100502
998,700	92,9001	-0,100321
999,400	92,9715	-0,100142
1000,10	93,0405	-0,0999209
1000,80	93,1104	-0,0998274
1001,50	93,1802	-0,0995968
1002,20	93,2510	-0,0993769
1002,90	93,3209	-0,0992202
1003,60	93,3909	-0,0990735
1004,30	93,4609	-0,0987854
1005,00	93,5314	-0,0985642
1005,70	93,6007	-0,0982895
1006,40	93,6710	-0,0981359
1007,10	93,7411	-0,0979543
1007,80	93,8106	-0,0977799
1008,50	93,8814	-0,0976225
1009,20	93,9514	-0,0974949
1009,90	94,0220	-0,0972892
1010,60	94,0918	-0,0970084
1011,30	94,1616	-0,0968573
1012,00	94,2319	-0,0966806
1012,70	94,3026	-0,0964213
1013,40	94,3724	-0,0963007
1014,10	94,4421	-0,0959789
1014,80	94,5120	-0,0957550
1015,50	94,5834	-0,0955778
1016,20	94,6523	-0,0954036
1016,90	94,7233	-0,0952359
1017,60	94,7929	-0,0951014
1018,30	94,8633	-0,0948908
1019,00	94,9327	-0,0945981
1019,70	95,0042	-0,0943773
1020,40	95,0732	-0,0942191
1021,10	95,1430	-0,0940276
1021,80	95,2132	-0,0938837
1022,50	95,2836	-0,0936447
1023,20	95,3531	-0,0934999
1023,90	95,4231	-0,0933059
1024,60	95,4930	-0,0931939
1025,30	95,5631	-0,0928211
1026,00	95,6331	-0,0926037
1026,70	95,7031	-0,0923203
1027,40	95,7732	-0,0921270
1028,10	95,8440	-0,0918946
1028,80	95,9148	-0,0918894
1029,50	95,9842	-0,0916906
1030,20	96,0549	-0,0915459
1030,90	96,1250	-0,0913505
1031,60	96,1954	-0,0911983
1032,30	96,2650	-0,0910178
1033,00	96,3352	-0,0908955
1033,70	96,4036	-0,0905808
1034,40	96,4744	-0,0904083
1035,10	96,5459	-0,0902025
1035,80	96,6155	-0,0900551
1036,50	96,6847	-0,0898216
1037,20	96,7550	-0,0896615
1037,90	96,8247	-0,0894722
1038,60	96,8954	-0,0893336
1039,30	96,9650	-0,0888006
1040,00	97,0349	-0,0885977
1040,70	97,1061	-0,0883183
1041,40	97,1752	-0,0881598
1042,10	97,2448	-0,0879352
1042,80	97,3163	-0,0877748
1043,50	97,3861	-0,0875675
1044,20	97,4556	-0,0874267
1044,90	97,5250	-0,0871483
1045,60	97,5957	-0,0870712
1046,30	97,6667	-0,0869592
1047,00	97,7358	-0,0867173
1047,70	97,8065	-0,0864849
1048,40	97,8760	-0,0863357
1049,10	97,9454	-0,0860631
1049,80	98,0158	-0,0858572
1050,50	98,0855	-0,0856483
1051,20	98,1567	-0,0855049
1051,90	98,2267	-0,0853198
1052,60	98,2967	-0,0850563
1053,30	98,3658	-0,0848861
1054,00	98,4361	-0,0847711
1054,70	98,5057	-0,0844975
1055,40	98,5768	-0,0842857
1056,10	98,6465	-0,0841383
1056,60	98,6966	-0,0840287